time(s),boardID,aX,aY,aZ,gX,gY,gZ
0.51,1,-0.93,-0.14,-0.09,15.73,-5.50,15.61
0.52,1,-0.94,-0.12,-0.14,12.18,-24.47,11.50
0.52,1,-0.91,-0.18,-0.04,2.37,-1.66,-1.35
0.53,1,-0.90,-0.15,-0.03,-5.28,-0.16,4.80
0.54,1,-0.93,-0.15,-0.03,-13.72,-2.24,8.20
0.54,1,-0.94,-0.19,-0.03,-15.79,-13.25,14.01
0.55,1,-0.94,-0.15,0.05,-18.74,-25.53,16.02
0.55,1,-0.89,-0.08,0.01,-20.51,-25.55,11.93
0.55,1,-0.96,-0.04,0.00,-13.95,-31.66,12.95
0.56,1,-0.91,-0.03,0.08,-14.76,-33.92,1.47
0.56,1,-0.93,-0.06,0.11,-19.51,-21.68,3.04
0.57,1,-0.89,-0.00,0.09,-34.40,-0.53,-7.03
0.57,1,-0.93,-0.03,0.13,-33.33,4.18,-5.03
0.58,1,-0.92,-0.04,0.10,-30.81,16.51,-8.27
0.58,1,-0.92,-0.05,0.09,-29.79,32.60,-6.76
0.58,1,-0.89,-0.04,0.05,-28.63,50.43,-9.67
0.59,1,-0.93,-0.12,-0.04,-21.89,68.11,-19.55
0.59,1,-0.88,-0.13,-0.14,-20.31,76.02,-26.03
0.59,1,-1.08,-0.26,-0.34,13.50,67.28,-49.59
0.59,1,-0.97,-0.28,-0.20,-18.74,19.96,-25.98
0.6,1,-0.90,-0.22,-0.23,-19.83,-0.81,-3.31
0.6,1,-0.94,-0.15,-0.21,-10.32,-19.31,13.60
0.61,1,-0.90,-0.17,-0.20,-12.73,-14.92,-1.22
0.61,1,-0.90,-0.18,-0.17,-11.63,-15.31,6.22
0.61,1,-0.91,-0.12,-0.23,-1.69,-7.18,16.31
0.62,1,-0.83,-0.13,-0.18,-4.63,-16.88,7.38
0.62,1,-0.89,-0.17,-0.17,4.98,-4.06,-2.74
0.62,1,-0.88,-0.16,-0.17,4.44,3.27,-4.01
0.62,1,-0.89,-0.17,-0.17,3.76,3.29,-0.27
0.63,1,-0.87,-0.15,-0.20,0.24,0.59,1.67
0.63,1,-0.88,-0.15,-0.20,-1.98,-9.81,-3.25
0.63,1,-0.85,-0.17,-0.15,-6.08,-11.47,3.21
0.64,1,-0.91,-0.23,-0.12,-11.70,-7.67,10.71
0.64,1,-0.89,-0.16,-0.14,-18.29,-7.13,11.37
0.64,1,-0.93,-0.12,-0.15,-22.23,-0.96,4.48
0.64,1,-0.88,-0.15,-0.16,-18.76,-7.06,-7.32
0.64,1,-0.85,-0.14,-0.12,-13.69,-12.03,-9.67
0.64,1,-0.83,-0.16,-0.12,-24.46,1.54,-8.49
0.65,1,-0.90,-0.17,-0.15,-26.95,1.31,-7.92
0.65,1,-0.88,-0.16,-0.12,-30.43,2.08,-12.21
0.65,1,-0.86,-0.16,-0.15,-31.43,17.34,-20.18
0.65,1,-0.89,-0.24,-0.16,-19.55,25.31,-20.37
0.66,1,-0.83,-0.24,-0.12,-27.85,28.17,-19.47
0.66,1,-0.97,-0.20,-0.31,-36.38,52.05,-21.63
0.66,1,-0.83,-0.27,-0.35,-29.41,59.63,-24.78
0.66,1,-0.89,-0.28,-0.30,-22.37,27.79,-18.78
0.66,1,-0.77,-0.22,-0.34,-21.42,-8.71,-5.03
0.67,1,-0.81,-0.26,-0.29,-10.85,-2.66,-1.27
0.67,1,-0.75,-0.22,-0.31,2.69,-5.88,6.34
0.67,1,-0.79,-0.27,-0.32,10.04,-11.04,5.08
0.67,1,-0.87,-0.29,-0.29,10.30,-23.80,5.60
0.67,1,-0.86,-0.30,-0.28,6.72,-26.71,9.33
0.67,1,-0.88,-0.34,-0.24,-1.21,-30.58,12.99
0.67,1,-0.79,-0.30,-0.18,-0.67,-35.46,17.02
0.68,1,-0.81,-0.26,-0.13,-5.59,-22.52,22.62
0.68,1,-0.86,-0.27,-0.08,-0.56,-17.27,20.29
0.68,1,-0.88,-0.27,-0.08,-3.85,-9.05,15.08
0.68,1,-0.87,-0.22,-0.11,2.40,-16.57,2.98
0.69,1,-0.81,-0.16,-0.06,-9.42,-4.08,-2.24
0.69,1,-0.88,-0.20,-0.09,-1.66,-12.53,8.95
0.69,1,-0.87,-0.19,-0.08,3.47,-18.96,5.72
0.69,1,-0.87,-0.14,-0.10,-1.93,-32.92,8.43
0.69,1,-0.91,-0.16,0.00,-10.68,-26.50,9.66
0.69,1,-0.90,-0.11,0.00,-14.99,-21.61,11.51
0.7,1,-0.90,-0.11,0.02,-18.57,-10.89,9.21
0.7,1,-0.93,-0.16,0.06,-20.02,0.14,-1.03
0.7,1,-0.87,-0.15,0.03,-25.34,16.66,-11.10
0.7,1,-0.90,-0.11,0.01,-23.64,14.42,-15.15
0.7,1,-0.73,-0.29,0.26,-21.36,19.76,-9.35
0.71,1,-1.08,-0.14,-0.03,-26.67,23.02,-3.34
0.71,1,-1.00,-0.08,-0.13,-20.43,31.76,-19.31
0.71,1,-0.89,-0.13,-0.07,-15.91,24.77,-17.54
0.71,1,-0.86,-0.15,-0.10,-16.85,20.47,-7.53
0.72,1,-0.94,-0.26,-0.11,-10.84,-4.10,-14.34
0.72,1,-0.88,-0.29,-0.09,-6.92,-3.56,6.50
0.72,1,-0.88,-0.21,-0.10,-18.47,-3.20,5.81
0.72,1,-0.89,-0.21,-0.11,-13.37,-3.79,2.26
0.72,1,-0.90,-0.24,-0.08,-5.89,-2.76,1.67
0.72,1,-0.90,-0.20,-0.09,-3.60,-3.38,11.45
0.72,1,-0.91,-0.20,-0.12,-4.23,-4.08,12.82
0.73,1,-0.90,-0.18,-0.07,-6.89,-9.76,9.83
0.73,1,-0.90,-0.18,-0.07,-9.71,-9.74,5.64
0.73,1,-0.90,-0.17,-0.05,-10.35,-11.81,5.87
0.74,1,-0.94,-0.13,-0.03,-15.51,-9.97,7.64
0.74,1,-0.94,-0.10,-0.01,-32.79,-8.18,-10.54
0.74,1,-0.91,-0.16,-0.02,-41.49,-1.62,-17.35
0.74,1,-0.93,-0.20,-0.02,-35.15,0.58,-16.59
0.74,1,-0.92,-0.20,-0.01,-28.44,1.02,-9.69
0.74,1,-0.90,-0.20,-0.02,-15.15,3.13,-2.45
0.74,1,-0.87,-0.22,-0.03,-6.08,3.98,2.08
0.75,1,-0.88,-0.21,-0.05,-3.08,6.02,4.99
0.75,1,-0.87,-0.20,-0.08,-1.69,11.70,3.56
0.75,1,-0.88,-0.19,-0.09,-4.83,16.66,-1.46
0.75,1,-0.86,-0.19,-0.16,-8.15,21.30,-5.81
0.75,1,-0.86,-0.20,-0.17,-15.40,22.33,-8.83
0.76,1,-0.85,-0.21,-0.18,-19.02,23.46,-12.54
0.76,1,-0.84,-0.24,-0.23,-22.41,20.24,-12.47
0.76,1,-0.83,-0.23,-0.25,-23.35,25.81,-14.72
0.76,1,-0.81,-0.25,-0.28,-21.13,27.58,-15.47
0.76,1,-0.89,-0.33,-0.15,-35.47,4.42,9.56
0.77,1,-0.85,-0.22,-0.36,-15.94,-11.44,17.48
0.77,1,-0.73,-0.19,-0.28,-14.66,-41.51,7.87
0.77,1,-0.83,-0.24,-0.31,-14.07,-16.08,4.89
0.77,1,-0.90,-0.23,-0.32,-14.49,-10.05,4.71
0.77,1,-0.89,-0.22,-0.28,-18.41,-9.55,3.74
0.78,1,-0.77,-0.21,-0.28,-17.36,-8.21,0.67
0.78,1,-0.83,-0.22,-0.27,-19.95,-3.40,-3.86
0.78,1,-0.84,-0.21,-0.26,-18.33,-3.63,-3.73
0.78,1,-0.83,-0.21,-0.26,-17.33,-0.84,-3.72
0.79,1,-0.83,-0.20,-0.27,-13.88,2.73,-3.85
0.79,1,-0.83,-0.21,-0.27,-13.31,3.95,-2.11
0.79,1,-0.83,-0.21,-0.27,-12.05,6.56,-1.17
0.79,1,-0.83,-0.23,-0.30,-10.79,8.41,-2.98
0.79,1,-0.83,-0.20,-0.30,-15.57,11.96,-7.04
0.79,1,-0.80,-0.20,-0.27,-15.54,5.45,-5.02
0.79,1,-0.80,-0.21,-0.31,-18.73,3.20,-5.41
0.8,1,-0.80,-0.22,-0.32,-16.90,0.35,-4.66
0.8,1,-0.79,-0.23,-0.34,-14.58,-5.47,-2.34
0.8,1,-0.79,-0.23,-0.34,-12.67,-7.62,-1.43
0.8,1,-0.80,-0.23,-0.33,-10.68,-6.48,0.55
0.81,1,-0.79,-0.23,-0.33,-13.20,-2.24,2.22
0.81,1,-0.80,-0.23,-0.32,-11.56,2.56,2.31
0.81,1,-0.80,-0.22,-0.35,-9.14,4.75,2.19
0.81,1,-0.78,-0.22,-0.35,-10.24,9.26,-4.52
0.81,1,-0.78,-0.22,-0.32,-10.69,4.47,-0.89
0.82,1,-0.81,-0.22,-0.33,-12.87,3.73,-1.03
0.82,1,-0.82,-0.23,-0.32,-12.60,1.35,-2.53
0.82,1,-0.82,-0.22,-0.31,-14.02,-2.81,-0.31
0.82,1,-0.79,-0.20,-0.30,-15.37,-6.58,1.16
0.83,1,-0.81,-0.19,-0.27,-19.60,-5.34,-1.74
0.83,1,-0.83,-0.21,-0.29,-18.34,-5.03,-5.22
0.83,1,-0.83,-0.21,-0.27,-14.99,-3.98,-3.10
0.83,1,-0.82,-0.22,-0.29,-16.56,-1.22,-0.73
0.84,1,-0.83,-0.20,-0.29,-11.35,-6.03,2.66
0.84,1,-0.84,-0.21,-0.29,-13.51,-4.17,0.49
0.84,1,-0.83,-0.21,-0.27,-13.24,-1.28,0.91
0.84,1,-0.82,-0.21,-0.28,-12.35,0.69,-0.50
0.84,1,-0.83,-0.21,-0.29,-14.59,3.55,-2.62
0.84,1,-0.82,-0.22,-0.28,-14.18,5.26,-4.09
0.85,1,-0.82,-0.22,-0.29,-15.01,5.31,-4.50
0.85,1,-0.81,-0.22,-0.29,-14.97,3.92,-5.13
0.85,1,-0.80,-0.22,-0.29,-14.04,3.49,-4.60
0.85,1,-0.80,-0.22,-0.29,-14.66,3.54,-4.39
0.85,1,-0.79,-0.22,-0.30,-13.44,3.91,-3.08
0.86,1,-0.80,-0.23,-0.33,-15.85,3.16,-1.04
0.86,1,-0.80,-0.25,-0.35,-10.35,3.81,-1.98
0.86,1,-0.78,-0.21,-0.36,-13.90,3.73,-5.55
0.86,1,-0.78,-0.23,-0.32,-14.14,-5.38,1.11
0.87,1,-0.79,-0.22,-0.33,-12.96,-7.97,0.40
0.87,1,-0.80,-0.23,-0.34,-12.35,-2.71,0.17
0.87,1,-0.79,-0.22,-0.34,-9.44,1.14,0.74
0.87,1,-0.80,-0.23,-0.32,-11.56,4.54,-1.53
0.87,1,-0.80,-0.25,-0.31,-12.12,1.40,-0.33
0.88,1,-0.80,-0.22,-0.32,-12.00,4.68,-1.24
0.88,1,-0.80,-0.21,-0.32,-15.81,9.77,-4.51
0.88,1,-0.80,-0.21,-0.31,-15.50,-7.97,-1.08
0.88,1,-0.83,-0.23,-0.33,-15.92,-6.93,0.85
0.88,1,-0.79,-0.22,-0.30,-11.61,-7.17,1.41
0.89,1,-0.79,-0.21,-0.28,-13.42,-7.55,1.02
0.89,1,-0.83,-0.20,-0.28,-12.18,-7.98,2.33
0.89,1,-0.85,-0.22,-0.29,-13.26,-3.08,-0.75
0.89,1,-0.82,-0.22,-0.29,-15.89,2.98,-3.96
0.89,1,-0.82,-0.21,-0.29,-16.01,3.56,-4.15
0.89,1,-0.81,-0.20,-0.28,-17.89,-0.37,-3.92
0.9,1,-0.82,-0.21,-0.31,-16.51,-1.05,-3.10
0.9,1,-0.82,-0.22,-0.30,-16.76,0.08,-3.06
0.9,1,-0.83,-0.23,-0.30,-14.04,3.75,-3.35
0.9,1,-0.81,-0.22,-0.30,-14.15,5.54,-4.16
0.9,1,-0.81,-0.23,-0.30,-13.70,5.15,-4.42
0.91,1,-0.79,-0.22,-0.31,-12.57,4.34,-4.56
0.91,1,-0.79,-0.23,-0.32,-13.20,2.86,-0.64
0.91,1,-0.77,-0.22,-0.32,-9.64,-0.73,-2.25
0.91,1,-0.77,-0.23,-0.32,-11.25,-4.69,1.08
0.91,1,-0.77,-0.23,-0.33,-14.20,-1.07,-0.05
0.92,1,-0.80,-0.24,-0.36,-15.53,0.08,0.00
0.92,1,-0.81,-0.23,-0.34,-15.56,1.19,-5.02
0.92,1,-0.80,-0.21,-0.33,-14.53,-2.63,-0.17
0.92,1,-0.81,-0.22,-0.34,-11.92,-2.08,-0.96
0.92,1,-0.79,-0.22,-0.33,-11.72,2.43,-1.45
0.93,1,-0.79,-0.20,-0.32,-12.40,3.24,0.98
0.93,1,-0.81,-0.21,-0.32,-11.95,4.76,-2.62
0.93,1,-0.78,-0.22,-0.32,-14.25,4.69,-7.31
0.94,1,-0.80,-0.24,-0.31,-13.73,0.35,-1.76
0.94,1,-0.83,-0.22,-0.32,-13.32,-0.39,-0.42
0.94,1,-0.83,-0.22,-0.29,-13.11,-3.57,-0.64
0.94,1,-0.80,-0.21,-0.28,-12.22,-4.75,1.69
0.94,1,-0.80,-0.20,-0.29,-14.95,-6.72,0.22
0.94,1,-0.82,-0.22,-0.29,-14.85,-4.34,-1.61
0.94,1,-0.83,-0.22,-0.29,-17.82,-3.44,-1.85
0.95,1,-0.82,-0.22,-0.29,-17.01,-2.46,-3.05
0.95,1,-0.82,-0.20,-0.29,-17.67,-1.26,-3.16
0.95,1,-0.83,-0.22,-0.29,-14.90,1.08,-2.95
0.95,1,-0.82,-0.22,-0.30,-14.55,3.24,-2.86
0.96,1,-0.82,-0.22,-0.29,-13.05,4.59,-2.62
0.96,1,-0.81,-0.22,-0.31,-12.27,4.50,-3.08
0.96,1,-0.81,-0.21,-0.30,-13.94,3.38,-3.75
0.96,1,-0.81,-0.22,-0.30,-13.68,3.23,-4.62
0.96,1,-0.80,-0.24,-0.33,-17.90,3.36,-4.29
0.97,1,-0.79,-0.23,-0.32,-14.60,-0.05,-3.40
0.97,1,-0.79,-0.23,-0.32,-10.47,-5.31,-0.42
0.97,1,-0.79,-0.24,-0.32,-10.39,-4.61,1.34
0.97,1,-0.80,-0.24,-0.32,-9.90,-1.69,3.53
0.97,1,-0.80,-0.22,-0.34,-12.91,2.44,4.36
0.97,1,-0.77,-0.20,-0.33,-11.86,-1.92,-1.82
0.98,1,-0.81,-0.23,-0.33,-12.40,-1.70,-0.48
0.98,1,-0.81,-0.23,-0.33,-14.43,2.25,-0.66
0.99,1,-0.78,-0.22,-0.32,-12.09,2.76,-1.64
1.02,1,-0.77,-0.22,-0.34,-15.93,3.57,-3.76
1.06,1,-0.80,-0.22,-0.33,-16.61,1.99,-7.08
1.12,1,-0.81,-0.24,-0.31,-15.82,-2.78,-0.51
1.12,1,-0.82,-0.22,-0.32,-12.20,-6.75,1.46
1.12,1,-0.82,-0.22,-0.31,-13.06,-2.24,-1.78
1.12,1,-0.82,-0.22,-0.29,-13.09,-0.77,0.92
1.13,1,-0.80,-0.21,-0.29,-12.11,-3.94,-0.14
1.13,1,-0.81,-0.22,-0.31,-14.95,-4.79,0.00
1.14,1,-0.82,-0.21,-0.31,-14.79,-3.00,-1.57
1.14,1,-0.82,-0.21,-0.29,-17.44,-3.19,-2.63
1.15,1,-0.81,-0.21,-0.30,-16.59,-1.63,-2.68
1.15,1,-0.82,-0.21,-0.30,-16.27,-0.34,-3.23
1.15,1,-0.82,-0.22,-0.29,-15.64,1.07,-3.02
1.16,1,-0.82,-0.21,-0.31,-14.66,2.79,-3.22
1.16,1,-0.80,-0.22,-0.30,-15.34,4.01,-3.42
1.16,1,-0.80,-0.22,-0.31,-14.09,5.22,-3.88
1.16,1,-0.80,-0.23,-0.32,-14.61,2.69,-4.01
1.16,1,-0.80,-0.23,-0.32,-12.17,1.54,-2.88
1.16,1,-0.80,-0.23,-0.32,-12.37,-0.09,-2.43
1.17,1,-0.78,-0.22,-0.34,-13.99,1.58,-0.68
1.17,1,-0.81,-0.23,-0.34,-11.76,-0.31,-0.95
1.17,1,-0.80,-0.22,-0.33,-10.19,-4.13,0.63
1.17,1,-0.79,-0.22,-0.33,-9.47,-3.33,0.78
1.17,1,-0.78,-0.23,-0.34,-12.11,0.15,1.70
1.18,1,-0.78,-0.22,-0.32,-12.53,0.57,0.98
1.18,1,-0.80,-0.21,-0.32,-11.12,2.01,-0.57
1.18,1,-0.80,-0.22,-0.33,-14.72,3.05,-4.21
1.18,1,-0.81,-0.23,-0.34,-15.37,5.44,-6.19
1.18,1,-0.79,-0.22,-0.32,-14.58,1.54,-0.82
1.19,1,-0.80,-0.21,-0.32,-14.72,-1.56,-2.19
1.19,1,-0.81,-0.22,-0.31,-12.86,-1.22,-0.86
1.19,1,-0.81,-0.22,-0.32,-13.85,-1.58,-0.79
1.19,1,-0.81,-0.21,-0.31,-12.63,-3.87,-1.00
1.19,1,-0.81,-0.21,-0.30,-13.78,-4.83,0.34
1.19,1,-0.83,-0.22,-0.31,-14.38,-5.01,-0.31
1.19,1,-0.82,-0.22,-0.30,-14.64,-2.24,-1.20
1.2,1,-0.82,-0.21,-0.29,-16.96,-1.67,-1.94
1.2,1,-0.82,-0.21,-0.30,-16.54,-1.46,-2.83
1.2,1,-0.82,-0.21,-0.30,-17.48,-1.01,-3.17
1.2,1,-0.82,-0.22,-0.30,-16.19,0.32,-3.26
1.21,1,-0.82,-0.22,-0.30,-14.39,1.59,-2.37
1.21,1,-0.81,-0.22,-0.29,-13.41,2.68,-2.02
1.21,1,-0.81,-0.23,-0.33,-13.49,4.42,-3.27
1.21,1,-0.81,-0.22,-0.33,-16.39,4.18,-4.05
1.21,1,-0.80,-0.23,-0.31,-15.63,3.20,-4.39
1.21,1,-0.80,-0.23,-0.33,-16.76,1.60,-4.58
1.22,1,-0.79,-0.23,-0.34,-15.08,-0.72,-4.20
1.22,1,-0.79,-0.22,-0.33,-12.89,-3.95,-1.83
1.22,1,-0.79,-0.22,-0.35,-16.76,-4.65,1.65
1.22,1,-0.79,-0.22,-0.33,-14.15,-3.87,0.69
1.22,1,-0.80,-0.23,-0.33,-12.03,-5.35,1.34
1.23,1,-0.79,-0.24,-0.33,-11.14,-0.46,2.05
1.23,1,-0.79,-0.23,-0.34,-9.17,1.85,0.65
1.23,1,-0.78,-0.23,-0.31,-9.34,2.39,2.78
1.23,1,-0.81,-0.21,-0.33,-8.05,4.66,0.37
1.23,1,-0.81,-0.23,-0.32,-11.34,4.21,-3.00
1.24,1,-0.79,-0.23,-0.31,-10.66,1.73,0.99
1.24,1,-0.80,-0.22,-0.31,-12.73,-1.74,-0.95
1.24,1,-0.82,-0.22,-0.32,-13.82,-2.28,-1.48
1.24,1,-0.82,-0.22,-0.31,-14.82,-2.34,-2.62
1.24,1,-0.81,-0.22,-0.29,-18.40,-4.60,-3.05
1.24,1,-0.80,-0.22,-0.29,-16.42,-3.49,-1.44
1.24,1,-0.81,-0.22,-0.30,-16.95,-2.50,-1.44
1.25,1,-0.82,-0.22,-0.31,-15.31,-1.82,-2.05
1.25,1,-0.81,-0.22,-0.30,-15.73,-1.63,-1.27
1.25,1,-0.81,-0.21,-0.31,-16.50,-0.74,-2.54
1.25,1,-0.82,-0.22,-0.31,-14.93,-0.21,-2.56
1.25,1,-0.81,-0.21,-0.30,-15.59,-0.09,-2.37
1.26,1,-0.81,-0.21,-0.30,-15.28,1.11,-2.79
1.26,1,-0.81,-0.23,-0.31,-15.02,2.58,-3.63
1.26,1,-0.80,-0.22,-0.32,-17.28,2.34,-4.27
1.26,1,-0.79,-0.23,-0.33,-16.43,2.74,-4.42
1.26,1,-0.80,-0.22,-0.33,-16.81,1.19,-3.49
1.27,1,-0.80,-0.23,-0.33,-13.74,-0.39,-3.13
1.27,1,-0.78,-0.23,-0.34,-13.03,-2.56,-1.02
1.27,1,-0.79,-0.23,-0.33,-10.74,-3.18,-0.05
1.27,1,-0.80,-0.24,-0.34,-11.60,-1.97,2.05
1.27,1,-0.79,-0.23,-0.32,-11.24,-1.13,2.56
1.27,1,-0.79,-0.23,-0.32,-9.43,-1.00,0.43
1.28,1,-0.81,-0.23,-0.34,-12.07,1.86,0.12
1.28,1,-0.80,-0.22,-0.32,-12.37,2.65,-1.01
1.28,1,-0.80,-0.22,-0.33,-11.44,-1.69,0.76
1.28,1,-0.80,-0.22,-0.32,-11.20,0.15,1.18
1.29,1,-0.79,-0.22,-0.31,-12.53,1.06,-2.42
1.29,1,-0.80,-0.22,-0.31,-12.10,0.75,-0.50
1.29,1,-0.82,-0.21,-0.31,-11.60,-1.01,0.11
1.29,1,-0.82,-0.22,-0.31,-14.34,-1.09,-1.67
1.29,1,-0.81,-0.22,-0.30,-13.72,-0.40,-1.47
1.29,1,-0.81,-0.22,-0.31,-15.34,-2.50,-1.58
1.29,1,-0.81,-0.22,-0.31,-15.08,-2.17,-1.62
1.3,1,-0.81,-0.21,-0.32,-16.66,-1.60,-2.82
1.3,1,-0.82,-0.22,-0.31,-18.90,-1.94,-3.64
1.3,1,-0.81,-0.21,-0.31,-18.03,-1.89,-3.94
1.3,1,-0.81,-0.21,-0.31,-17.24,-1.71,-3.06
1.31,1,-0.81,-0.21,-0.31,-15.69,-1.05,-2.37
1.31,1,-0.82,-0.22,-0.31,-13.60,0.60,-1.95
1.31,1,-0.81,-0.23,-0.31,-14.26,1.86,-2.30
1.31,1,-0.81,-0.23,-0.32,-13.72,2.49,-3.02
1.31,1,-0.80,-0.23,-0.32,-15.10,2.47,-3.13
1.32,1,-0.80,-0.22,-0.33,-15.02,1.47,-3.54
1.32,1,-0.79,-0.23,-0.33,-14.59,1.40,-3.65
1.32,1,-0.80,-0.22,-0.34,-15.44,-0.07,-2.85
1.32,1,-0.80,-0.23,-0.33,-13.24,-0.80,-1.94
1.32,1,-0.80,-0.22,-0.33,-13.52,-1.28,-1.11
1.32,1,-0.79,-0.22,-0.34,-13.35,-0.96,-0.10
1.33,1,-0.80,-0.22,-0.31,-13.82,-0.48,-1.41
1.33,1,-0.81,-0.22,-0.32,-14.59,-0.60,-1.49
1.33,1,-0.81,-0.22,-0.31,-13.49,-0.08,-1.56
1.33,1,-0.81,-0.22,-0.31,-13.36,-0.02,-1.87
1.34,1,-0.80,-0.22,-0.32,-14.66,-0.41,-1.66
1.34,1,-0.80,-0.22,-0.32,-13.11,0.29,-1.81
1.34,1,-0.81,-0.22,-0.32,-14.59,0.85,-2.05
1.34,1,-0.82,-0.22,-0.31,-14.34,4.50,-3.30
1.34,1,-0.83,-0.21,-0.29,-14.53,17.50,-8.26
1.34,1,-0.85,-0.19,-0.22,-14.69,36.34,-18.30
1.38,1,-0.86,-0.27,-0.36,-22.46,-3.08,-11.10
1.46,1,-0.79,-0.14,-0.38,-0.60,-85.81,37.51
1.53,1,-0.71,-0.21,-0.27,-14.47,-112.73,41.60
1.61,1,-0.87,-0.16,-0.27,-8.60,-111.87,48.53
1.68,1,-0.88,-0.20,-0.18,-0.72,-80.43,24.71
1.75,1,-1.04,-0.14,0.05,-15.24,-29.82,0.11
1.83,1,-0.97,-0.09,0.08,-15.29,33.50,-17.25
1.9,1,-0.93,-0.11,-0.01,-4.97,61.47,-17.37
1.98,1,-1.02,-0.10,0.02,-12.25,66.90,-22.59
2.05,1,-0.89,-0.14,-0.07,-17.07,36.38,-17.67
2.12,1,-0.83,-0.18,0.00,-3.73,-3.56,-2.37
2.2,1,-0.75,-0.17,-0.07,-12.38,-4.11,-0.59
2.27,1,-0.93,-0.12,-0.26,-18.46,-2.65,0.98
2.35,1,-1.04,-0.12,-0.02,-14.34,-17.82,1.17
2.42,1,-0.99,-0.13,-0.10,-15.03,-20.43,3.50
2.5,1,-0.92,-0.02,-0.02,-12.94,-31.43,7.11
2.57,1,-0.86,-0.07,0.01,-11.95,-16.22,3.10
2.64,1,-0.91,-0.12,0.01,-16.18,-3.06,-2.25
2.72,1,-0.80,-0.10,0.01,-15.27,-9.79,-0.21
2.79,1,-0.90,-0.15,-0.07,-17.98,9.53,-6.00
2.87,1,-0.90,-0.15,-0.05,-15.93,25.37,-10.20
2.94,1,-0.90,-0.13,-0.05,-16.05,22.57,-10.54
3.02,1,-0.91,-0.14,-0.07,-13.98,35.68,-15.55
3.09,1,-0.92,-0.13,-0.08,-12.44,42.47,-16.89
3.17,1,-0.88,-0.14,-0.04,-14.31,46.37,-21.41
3.24,1,-0.82,-0.13,-0.16,-20.04,46.24,-19.86
3.32,1,-0.89,-0.18,-0.27,-16.86,7.15,-13.31
3.39,1,-1.09,-0.03,-0.68,11.29,-89.59,35.92
3.46,1,-0.90,-0.08,-0.25,7.87,-235.16,89.84
3.54,1,-0.86,-0.02,0.01,-4.95,-231.35,92.30
3.61,1,-0.78,0.05,0.28,-6.02,-114.22,41.15
3.68,1,-0.87,0.06,0.43,-12.93,8.24,-16.01
3.76,1,-0.81,0.03,0.36,-23.67,86.21,-50.43
3.84,1,-0.98,-0.03,0.30,-20.45,132.56,-63.75
3.91,1,-1.00,-0.10,0.19,-20.07,109.10,-43.19
3.98,1,-1.11,-0.13,-0.06,-29.89,70.08,1.84
4.06,1,-0.98,-0.05,0.03,8.82,51.19,-15.56
4.13,1,-0.37,0.05,0.02,-17.36,-26.82,3.59
4.2,1,-0.73,-0.03,0.20,-14.76,-51.67,11.34
4.28,1,-0.89,-0.04,0.13,-23.37,-13.85,14.91
4.35,1,-0.88,-0.04,0.07,-21.94,2.90,4.98
4.43,1,-0.54,0.01,0.36,-0.53,12.58,-8.71
4.5,1,-0.88,-0.26,-0.03,-21.01,72.03,-36.11
4.58,1,-0.80,-0.10,0.18,-17.49,25.66,-15.41
4.65,1,-0.85,-0.15,0.02,-13.18,26.69,-9.24
4.72,1,-0.95,-0.05,-0.00,-10.93,-7.00,3.91
4.8,1,-1.10,-0.07,0.03,-15.00,-25.80,4.53
4.88,1,-0.84,-0.07,-0.03,-18.90,-0.64,-6.24
4.95,1,-0.86,-0.08,0.07,-18.71,20.71,-12.86
5.02,1,-0.86,-0.17,-0.00,-5.46,19.93,-7.53
5.1,1,-0.88,-0.19,-0.03,-23.94,19.60,-11.62
5.17,1,-0.84,-0.15,-0.14,-13.42,7.17,-5.51
5.25,1,-0.85,-0.17,-0.26,-22.68,-13.80,-6.41
5.32,1,-0.88,0.01,-0.30,-17.15,-147.69,57.47
5.4,1,-0.72,-0.19,-0.01,18.10,-136.65,54.42
5.47,1,-0.78,-0.06,-0.09,-9.31,-63.12,21.20
5.54,1,-0.76,-0.00,0.13,-14.18,-69.13,23.85
5.61,1,-0.91,0.03,0.29,-23.19,-5.87,3.69
5.69,1,-0.90,-0.04,0.25,-24.82,70.83,-30.71
5.76,1,-0.94,-0.09,0.18,-20.73,93.38,-39.19
5.84,1,-1.03,-0.11,0.13,-26.23,86.97,-35.54
5.91,1,-1.05,-0.37,0.43,-21.93,29.12,10.85
5.99,1,-1.10,-0.12,0.07,-15.86,39.94,-4.02
6.06,1,-1.20,-0.06,0.01,-3.60,42.56,-22.98
6.14,1,-0.82,-0.18,-0.16,-13.27,13.44,-5.95
6.21,1,-1.67,0.19,-0.10,-24.73,30.79,-48.52
6.28,1,-0.76,-0.15,-0.10,4.57,-0.60,-17.98
6.36,1,-0.51,-0.12,-0.06,-2.51,16.66,-16.82
6.44,1,-0.90,-0.12,-0.02,-13.13,-6.69,-0.51
6.51,1,-0.95,-0.16,-0.03,-19.60,24.27,-9.47
6.58,1,-0.86,-0.06,-0.13,-19.92,-0.63,-5.69
6.66,1,-0.82,-0.19,-0.07,-14.82,18.94,-17.66
6.73,1,-0.99,-0.23,-0.11,-19.25,31.54,-11.31
6.8,1,-0.89,-0.21,-0.18,-20.52,20.67,-6.98
6.88,1,-0.91,-0.18,-0.17,-15.39,-10.40,0.45
6.96,1,-0.83,-0.20,-0.22,-18.05,-22.75,-0.42
7.03,1,-0.78,-0.22,-0.40,-17.75,16.38,-24.37
7.1,1,-1.21,-0.44,-0.49,83.94,-131.11,24.08
7.18,1,-0.85,-0.56,-0.25,14.20,-122.99,26.02
7.25,1,-0.82,-0.31,-0.14,25.88,-63.40,44.19
7.33,1,-0.81,-0.18,0.04,-12.24,-32.12,29.45
7.4,1,-0.88,-0.18,0.04,-5.64,17.65,-1.83
7.48,1,-0.87,-0.13,0.04,-21.88,66.07,-26.07
7.55,1,-0.88,-0.12,0.04,-17.05,85.44,-31.33
7.62,1,-0.88,-0.18,0.02,-15.70,61.79,-32.66
7.7,1,-0.92,-0.15,0.04,-16.15,21.87,-19.81
7.77,1,-1.09,-0.26,-0.04,-32.40,-8.18,0.56
7.85,1,-1.04,-0.12,0.14,-9.42,-44.50,27.63
7.92,1,-1.01,-0.09,0.04,-46.30,-48.11,12.05
8.0,1,-0.90,-0.16,0.03,-22.64,-23.22,-0.08
8.07,1,-0.90,-0.18,0.12,-24.11,-2.63,9.73
8.14,1,-0.88,-0.29,0.01,-44.08,30.23,-35.79
8.22,1,-0.99,-0.16,0.12,-20.58,70.12,-25.30
8.29,1,-0.87,-0.34,0.02,-50.71,71.28,-23.38
8.37,1,-1.01,-0.27,-0.10,-39.04,33.64,-15.38
8.44,1,-1.14,-0.35,-0.31,-34.00,51.80,-9.44
8.52,1,-0.93,-0.16,-0.03,-26.43,38.06,-24.58
8.59,1,-0.92,-0.23,-0.25,-20.43,33.37,-16.21
8.66,1,-0.77,-0.21,-0.33,-18.18,30.12,-9.27
8.74,1,-0.90,-0.33,-0.30,-12.15,35.79,-1.47
8.81,1,-0.56,-0.27,-0.35,-10.75,-31.32,12.66
8.89,1,-0.66,-0.22,-0.44,-12.62,-52.18,2.50
8.96,1,-1.04,-0.55,-0.27,103.92,-141.92,22.69
9.04,1,-0.57,-0.34,-0.14,13.26,-106.57,-20.92
9.11,1,-0.84,-0.46,-0.11,41.45,-26.79,-1.35
9.18,1,-1.03,-0.38,-0.23,12.82,-84.88,59.16
9.26,1,-0.73,-0.09,-0.02,2.16,-17.94,35.90
9.33,1,-0.74,-0.17,0.01,-1.29,46.41,7.95
9.41,1,-0.81,-0.17,-0.03,-10.66,115.82,-32.37
9.48,1,-0.86,-0.21,-0.11,-9.98,148.47,-60.04
9.56,1,-0.96,-0.24,-0.12,-11.03,79.56,-36.74
9.63,1,-1.04,-0.30,-0.21,-31.29,-6.99,4.53
9.7,1,-0.84,-0.22,-0.01,4.82,-66.02,29.85
9.78,1,-0.86,-0.10,-0.15,-22.14,-90.39,8.38
9.85,1,-0.87,0.06,0.24,-36.20,-21.55,-42.01
9.93,1,-0.91,-0.28,-0.11,-38.21,17.82,-29.38
10.0,1,-0.85,-0.28,-0.08,-34.03,16.32,-18.21
10.08,1,-0.89,-0.27,-0.02,-38.79,17.07,-2.76
10.15,1,-0.92,-0.29,-0.02,-38.51,28.92,-4.44
10.22,1,-0.91,-0.37,-0.05,-40.27,32.64,-13.31
10.3,1,-0.86,-0.28,-0.05,-34.15,14.79,-13.45
10.37,1,-0.97,-0.27,-0.06,-26.68,10.46,-21.34
10.45,1,-0.92,-0.28,-0.08,-20.58,-16.26,-5.08
10.52,1,-1.01,-0.30,-0.08,-14.37,-82.47,27.09
10.6,1,-1.10,-0.60,0.00,10.06,-121.65,73.96
10.67,1,-0.71,-0.25,0.02,-19.39,-63.84,30.19
10.75,1,-0.85,-0.21,-0.05,-24.87,5.69,-13.14
10.82,1,-0.85,-0.26,-0.12,-20.89,-33.90,-31.04
10.89,1,-1.01,-0.45,-0.11,6.85,-38.18,-39.05
10.97,1,-0.76,-0.36,-0.08,-10.40,-18.44,-29.08
11.04,1,-0.56,-0.21,-0.08,-5.23,29.49,2.60
11.11,1,-0.87,-0.40,-0.02,-15.39,76.47,2.82
11.19,1,-0.91,-0.33,-0.04,-18.40,78.27,-10.69
11.27,1,-0.90,-0.27,-0.00,-22.97,33.65,-0.94
11.34,1,-0.87,-0.36,0.02,-11.01,10.07,16.76
11.41,1,-1.02,-0.33,0.11,-22.31,-1.95,23.96
11.49,1,-1.09,-0.28,0.06,-12.10,-44.60,30.95
11.56,1,-0.91,-0.19,0.10,-16.73,-34.40,15.52
11.64,1,-0.91,-0.22,0.11,-18.11,-33.78,10.89
11.71,1,-0.87,-0.25,0.07,-15.21,-36.99,10.29
11.79,1,-0.91,-0.23,0.12,-16.86,-25.19,6.97
11.86,1,-0.91,-0.21,0.12,-16.55,-17.64,6.98
11.93,1,-0.90,-0.19,0.13,-14.97,-4.13,6.41
12.01,1,-0.88,-0.16,0.14,-15.40,26.55,-10.28
12.08,1,-0.92,-0.17,0.09,-7.07,64.61,-29.73
12.15,1,-0.99,-0.19,0.07,-4.52,59.10,-32.00
12.23,1,-1.01,-0.26,0.11,-8.50,19.46,-14.55
12.3,1,-0.95,-0.24,0.11,-7.83,12.85,-2.98
12.38,1,-0.98,-0.23,0.23,-0.46,-40.63,33.36
12.45,1,-0.91,-0.15,0.19,-8.24,-146.35,61.11
12.53,1,-0.71,-0.17,0.24,-5.33,-165.84,53.40
12.6,1,-0.64,-0.09,0.30,-27.02,-84.05,12.80
12.67,1,-0.83,-0.15,0.26,-24.97,3.80,-43.91
12.75,1,-0.90,-0.21,0.30,-29.25,34.21,-62.09
12.83,1,-0.92,-0.32,0.28,-23.18,32.73,-52.08
12.9,1,-0.97,-0.37,0.24,-14.65,-12.50,-17.61
12.97,1,-0.96,-0.30,0.29,-21.82,0.92,-5.20
13.05,1,-0.84,-0.31,0.26,-17.24,46.82,-12.57
13.12,1,-0.76,-0.34,0.27,-12.49,52.56,-5.58
13.19,1,-0.81,-0.35,0.25,-25.80,64.65,4.16
13.27,1,-0.91,-0.28,0.31,-3.02,41.33,11.70
13.34,1,-0.90,-0.26,0.24,-14.73,0.38,17.64
13.42,1,-0.92,-0.26,0.27,-11.05,-11.53,7.71
13.49,1,-1.22,-0.34,0.32,-25.37,-28.87,21.32
13.57,1,-0.81,-0.26,0.15,-5.72,-40.19,21.56
13.64,1,-0.82,-0.25,0.18,-18.70,-35.05,18.25
13.72,1,-0.94,-0.11,0.29,-14.40,-9.15,1.20
13.79,1,-0.84,-0.16,0.26,-26.33,-1.50,-11.82
13.87,1,-0.97,-0.25,0.28,-19.38,18.54,-19.83
13.94,1,-0.88,-0.24,0.24,-16.15,12.14,-19.46
14.01,1,-0.91,-0.29,0.25,-14.08,-4.70,-9.07
14.09,1,-0.88,-0.27,0.30,-14.45,1.29,-4.46
14.16,1,-0.92,-0.31,0.32,-15.29,-0.63,7.15
14.24,1,-0.95,-0.33,0.34,-16.21,-12.40,24.26
14.31,1,-0.97,-0.22,0.36,-14.52,-26.43,46.53
14.39,1,-0.88,-0.15,0.37,-9.87,-49.05,46.59
14.46,1,-0.81,-0.14,0.32,-1.63,-72.49,18.00
14.53,1,-0.88,-0.16,0.35,5.13,-55.13,-34.95
14.61,1,-0.89,-0.18,0.38,-0.73,-49.01,-53.16
14.68,1,-0.61,-0.06,0.45,-7.85,14.79,-52.66
14.76,1,-0.81,-0.42,0.28,-20.69,25.43,-30.85
14.83,1,-0.71,-0.38,0.24,-8.99,15.73,-17.09
14.91,1,-0.81,-0.37,0.33,-29.38,55.23,-13.68
14.98,1,-0.72,-0.32,0.33,-23.59,73.41,-3.32
15.05,1,-0.78,-0.28,0.28,-27.08,88.09,-7.11
15.13,1,-0.91,-0.27,0.24,-20.73,74.31,-2.78
15.2,1,-0.95,-0.29,0.20,-24.61,24.99,14.31
15.28,1,-0.90,-0.26,0.18,-24.84,14.23,13.23
15.35,1,-0.95,-0.28,0.15,-24.08,7.61,7.51
15.42,1,-0.93,-0.29,0.12,-26.12,-4.73,0.96
