time(s),boardID,aX,aY,aZ,gX,gY,gZ
0.51,1,-0.40,-0.32,-0.71,-22.03,-15.56,3.85
0.52,1,-0.44,-0.35,-0.71,-16.97,-14.24,1.02
0.53,1,-0.44,-0.34,-0.66,-8.48,-14.60,3.66
0.53,1,-0.48,-0.33,-0.65,-11.05,-8.68,5.29
0.53,1,-0.50,-0.33,-0.70,-12.31,-5.21,3.34
0.54,1,-0.51,-0.34,-0.70,-11.87,3.59,1.00
0.54,1,-0.45,-0.32,-0.65,-11.28,9.56,-6.78
0.54,1,-0.44,-0.32,-0.63,-11.47,25.79,-11.38
0.55,1,-0.50,-0.35,-0.74,-5.04,30.97,-6.95
0.55,1,-0.40,-0.35,-0.75,-9.45,20.47,-11.07
0.55,1,-0.37,-0.30,-0.57,-14.92,-4.53,-5.65
0.55,1,-0.49,-0.34,-0.76,-19.55,15.31,-6.86
0.56,1,-0.37,-0.19,-0.71,-10.46,-4.12,9.33
0.56,1,-0.49,-0.40,-0.81,-6.63,-6.44,0.76
0.57,1,-0.41,-0.29,-0.66,-12.97,-11.28,5.28
0.57,1,-0.43,-0.32,-0.66,-11.88,-15.71,4.85
0.57,1,-0.47,-0.40,-0.68,-14.11,-6.56,1.71
0.57,1,-0.47,-0.36,-0.66,-14.93,1.10,-2.08
0.58,1,-0.46,-0.33,-0.66,-14.74,-1.48,-2.21
0.58,1,-0.45,-0.34,-0.69,-13.38,-2.08,-1.87
0.58,1,-0.47,-0.35,-0.71,-8.43,-0.41,-2.82
0.58,1,-0.45,-0.33,-0.66,-12.92,5.34,-1.21
0.58,1,-0.46,-0.32,-0.67,-13.09,6.59,-4.34
0.58,1,-0.44,-0.34,-0.67,-14.86,8.86,-6.43
0.59,1,-0.43,-0.36,-0.72,-22.33,7.48,-5.23
0.59,1,-0.39,-0.32,-0.70,-16.52,4.80,-8.66
0.59,1,-0.38,-0.35,-0.69,-15.09,-3.88,-3.95
0.59,1,-0.36,-0.36,-0.74,-7.63,-13.06,0.95
0.6,1,-0.37,-0.40,-0.72,-13.34,-16.51,4.35
0.6,1,-0.40,-0.34,-0.69,-12.89,-14.08,3.71
0.6,1,-0.43,-0.35,-0.67,-13.95,-13.38,1.88
0.6,1,-0.46,-0.33,-0.69,-15.55,-4.49,1.53
0.6,1,-0.49,-0.36,-0.72,-13.73,6.29,2.29
0.6,1,-0.47,-0.32,-0.69,-13.41,13.82,-7.82
0.61,1,-0.48,-0.37,-0.75,-10.19,8.40,-4.99
0.61,1,-0.40,-0.34,-0.65,-14.44,13.49,-6.71
0.61,1,-0.40,-0.37,-0.74,-24.10,20.93,-8.83
0.61,1,-0.44,-0.31,-0.63,-12.40,6.41,-2.31
0.62,1,-0.48,-0.32,-0.77,-3.02,-2.58,3.92
0.62,1,-0.44,-0.37,-0.73,-9.81,14.74,-5.03
0.62,1,-0.47,-0.31,-0.65,-12.25,4.67,-4.61
0.62,1,-0.45,-0.38,-0.67,-14.51,5.34,-2.80
0.62,1,-0.43,-0.36,-0.73,-15.26,0.28,-1.49
0.63,1,-0.43,-0.32,-0.71,-14.45,-14.42,3.56
0.63,1,-0.42,-0.33,-0.65,-12.94,-16.75,4.49
0.63,1,-0.45,-0.42,-0.71,-17.76,-14.67,3.89
0.63,1,-0.46,-0.35,-0.67,-16.67,-5.37,-4.70
0.63,1,-0.47,-0.35,-0.70,-12.83,-0.31,-3.44
0.63,1,-0.46,-0.37,-0.63,-18.08,-1.15,-4.69
0.64,1,-0.44,-0.34,-0.68,-14.99,7.15,-2.70
0.64,1,-0.43,-0.32,-0.70,-14.60,8.43,-8.34
0.64,1,-0.41,-0.33,-0.68,-13.48,-7.85,1.64
0.64,1,-0.42,-0.37,-0.76,-12.45,-2.10,-4.12
0.65,1,-0.39,-0.35,-0.77,-3.83,-5.96,-0.15
0.65,1,-0.37,-0.33,-0.70,-12.43,-8.23,4.48
0.65,1,-0.40,-0.33,-0.70,-14.61,-13.03,1.13
0.65,1,-0.43,-0.37,-0.69,-16.03,-8.27,-0.05
0.65,1,-0.45,-0.36,-0.69,-13.71,-6.16,-0.85
0.66,1,-0.46,-0.34,-0.69,-14.89,-3.92,-2.98
0.66,1,-0.45,-0.35,-0.67,-14.05,1.27,-4.16
0.66,1,-0.45,-0.35,-0.68,-13.86,10.74,-5.82
0.66,1,-0.45,-0.41,-0.76,-9.18,12.64,3.26
0.66,1,-0.39,-0.31,-0.70,-9.92,9.60,-4.60
0.67,1,-0.45,-0.36,-0.71,-11.01,-0.27,0.90
0.67,1,-0.43,-0.32,-0.66,-13.65,5.04,0.76
0.67,1,-0.43,-0.33,-0.62,-11.44,4.83,-1.04
0.68,1,-0.49,-0.40,-0.80,-11.65,8.00,0.88
0.68,1,-0.42,-0.32,-0.69,-15.16,9.03,-8.11
0.68,1,-0.41,-0.32,-0.65,-13.39,-4.87,0.22
0.68,1,-0.45,-0.37,-0.69,-14.21,-5.64,-0.04
0.68,1,-0.48,-0.37,-0.70,-16.44,-1.07,-3.24
0.68,1,-0.45,-0.32,-0.67,-14.72,-1.73,-2.95
0.69,1,-0.43,-0.32,-0.69,-14.83,-2.76,-2.26
0.69,1,-0.45,-0.35,-0.72,-14.50,0.21,-3.10
0.69,1,-0.44,-0.34,-0.71,-9.76,-0.29,-2.30
0.69,1,-0.46,-0.34,-0.68,-13.82,-2.21,1.15
0.7,1,-0.41,-0.33,-0.68,-11.05,-0.67,2.78
0.7,1,-0.43,-0.33,-0.67,-9.31,0.18,-1.46
0.7,1,-0.42,-0.38,-0.69,-23.93,0.10,0.52
0.7,1,-0.41,-0.34,-0.71,-16.29,-0.02,-4.47
0.7,1,-0.43,-0.37,-0.72,-14.48,-1.10,-6.85
0.71,1,-0.40,-0.33,-0.71,-15.51,-2.60,-4.33
0.71,1,-0.38,-0.34,-0.71,-15.24,-5.97,-5.02
0.71,1,-0.42,-0.34,-0.69,-15.11,-4.08,-1.69
0.71,1,-0.44,-0.34,-0.69,-13.23,-5.28,0.40
0.71,1,-0.44,-0.35,-0.69,-12.51,-1.88,2.77
0.72,1,-0.44,-0.34,-0.70,-12.27,2.05,0.51
0.72,1,-0.45,-0.34,-0.69,-13.24,6.12,-1.24
0.72,1,-0.44,-0.33,-0.71,-9.96,5.95,-1.48
0.72,1,-0.43,-0.33,-0.66,-11.90,-0.74,-3.07
0.73,1,-0.43,-0.33,-0.68,-14.92,7.79,-0.34
0.73,1,-0.43,-0.33,-0.77,-21.18,15.29,-6.47
0.73,1,-0.36,-0.29,-0.67,-13.58,-0.16,-3.70
0.73,1,-0.44,-0.36,-0.70,-9.85,-13.31,2.60
0.73,1,-0.49,-0.38,-0.72,-14.72,-3.11,-2.83
0.73,1,-0.47,-0.32,-0.67,-16.82,2.53,-5.72
0.74,1,-0.43,-0.31,-0.67,-15.07,1.94,-3.27
0.74,1,-0.44,-0.34,-0.69,-13.58,3.85,-3.80
0.74,1,-0.45,-0.36,-0.70,-13.48,4.26,-1.31
0.74,1,-0.43,-0.34,-0.71,-13.60,4.62,-0.34
0.75,1,-0.42,-0.33,-0.69,-13.48,0.63,-0.92
0.75,1,-0.42,-0.33,-0.69,-13.18,-2.74,-0.80
0.75,1,-0.43,-0.35,-0.71,-11.89,-3.21,-1.27
0.75,1,-0.43,-0.33,-0.77,-11.81,-6.88,1.01
0.75,1,-0.46,-0.33,-0.68,-12.95,1.68,2.63
0.75,1,-0.40,-0.30,-0.66,-10.47,-3.08,-1.38
0.76,1,-0.43,-0.36,-0.69,-24.57,-6.97,-0.44
0.76,1,-0.43,-0.37,-0.72,-19.34,-4.15,-6.24
0.76,1,-0.43,-0.36,-0.74,-18.11,-2.01,-10.24
0.76,1,-0.42,-0.32,-0.71,-17.93,-2.67,-6.56
0.77,1,-0.42,-0.32,-0.70,-14.42,-4.68,-3.75
0.77,1,-0.43,-0.34,-0.69,-12.76,-5.54,1.06
0.77,1,-0.45,-0.34,-0.69,-12.27,-2.68,1.66
0.77,1,-0.43,-0.34,-0.70,-12.00,3.46,1.63
0.77,1,-0.43,-0.34,-0.69,-10.74,8.18,1.56
0.78,1,-0.44,-0.34,-0.70,-9.51,9.52,0.45
0.78,1,-0.44,-0.32,-0.72,-7.47,2.44,-1.52
0.78,1,-0.42,-0.35,-0.70,-14.76,3.86,-0.60
0.78,1,-0.40,-0.33,-0.68,-15.20,4.99,-2.31
0.78,1,-0.42,-0.34,-0.67,-16.44,6.15,-5.95
0.79,1,-0.47,-0.36,-0.69,-15.78,-6.12,1.34
0.79,1,-0.46,-0.35,-0.70,-15.08,-8.52,-2.11
0.79,1,-0.44,-0.33,-0.67,-15.05,-5.76,-0.47
0.79,1,-0.47,-0.33,-0.68,-13.82,-3.97,-1.24
0.8,1,-0.47,-0.35,-0.70,-14.39,3.04,-2.35
0.8,1,-0.46,-0.34,-0.70,-14.31,8.69,-5.27
0.8,1,-0.43,-0.33,-0.68,-14.02,8.19,-5.13
0.8,1,-0.42,-0.33,-0.70,-14.73,3.70,-3.79
0.8,1,-0.42,-0.35,-0.71,-14.34,0.77,-3.30
0.8,1,-0.42,-0.34,-0.71,-12.06,-1.70,-2.02
0.81,1,-0.42,-0.34,-0.72,-9.01,-2.63,-0.11
0.81,1,-0.43,-0.33,-0.69,-14.47,-2.67,2.33
0.81,1,-0.43,-0.33,-0.68,-12.95,-4.56,-0.02
0.82,1,-0.43,-0.33,-0.68,-12.11,-3.79,-0.08
0.82,1,-0.44,-0.36,-0.70,-14.27,-3.60,-1.15
0.82,1,-0.43,-0.34,-0.73,-18.49,-5.18,0.35
0.83,1,-0.41,-0.34,-0.71,-16.40,-7.98,-4.63
0.83,1,-0.42,-0.37,-0.69,-15.77,-4.79,-2.89
0.83,1,-0.45,-0.32,-0.70,-14.09,-4.56,-1.14
0.83,1,-0.44,-0.33,-0.69,-13.03,-4.18,-1.50
0.83,1,-0.45,-0.35,-0.70,-14.42,2.82,-1.87
0.83,1,-0.45,-0.34,-0.70,-13.34,7.59,-3.19
0.84,1,-0.46,-0.34,-0.71,-12.46,4.27,-4.01
0.84,1,-0.43,-0.34,-0.67,-13.69,5.76,-5.29
0.88,1,-0.43,-0.34,-0.68,-14.47,7.21,-4.32
0.89,1,-0.42,-0.34,-0.68,-13.29,6.69,-4.50
0.91,1,-0.43,-0.36,-0.72,-18.53,7.36,0.15
0.94,1,-0.41,-0.33,-0.67,-12.11,-2.21,5.26
0.95,1,-0.44,-0.34,-0.69,-10.83,-10.88,1.34
0.96,1,-0.46,-0.35,-0.69,-13.64,-7.71,4.02
0.96,1,-0.46,-0.33,-0.68,-13.38,-4.68,-1.73
0.96,1,-0.46,-0.34,-0.68,-13.39,2.25,-2.46
0.97,1,-0.45,-0.33,-0.70,-14.41,4.35,-4.07
0.98,1,-0.44,-0.34,-0.70,-16.41,4.28,-5.04
0.99,1,-0.44,-0.34,-0.69,-16.23,3.63,-4.79
1.0,1,-0.44,-0.34,-0.70,-15.47,0.86,-4.37
1.0,1,-0.43,-0.34,-0.70,-13.43,0.90,-3.91
1.0,1,-0.43,-0.34,-0.70,-11.11,2.32,-3.92
1.0,1,-0.42,-0.36,-0.70,-13.24,1.88,-1.35
1.01,1,-0.40,-0.35,-0.70,-13.53,-0.20,-0.82
1.01,1,-0.41,-0.33,-0.69,-13.79,-3.76,-1.15
1.01,1,-0.42,-0.33,-0.70,-13.12,-8.28,0.98
1.02,1,-0.42,-0.35,-0.68,-11.99,-9.01,1.66
1.02,1,-0.45,-0.35,-0.69,-14.72,-7.63,2.24
1.03,1,-0.44,-0.35,-0.70,-14.87,-8.40,2.46
1.03,1,-0.44,-0.35,-0.71,-14.82,-4.68,-2.56
1.03,1,-0.45,-0.34,-0.68,-15.38,-2.08,-1.11
1.03,1,-0.45,-0.33,-0.69,-13.65,0.31,-2.88
1.04,1,-0.45,-0.34,-0.69,-12.90,2.98,-4.60
1.04,1,-0.45,-0.34,-0.66,-15.21,2.44,-5.38
1.04,1,-0.46,-0.34,-0.70,-14.59,2.14,-4.95
1.05,1,-0.44,-0.36,-0.69,-14.05,4.69,-3.72
1.05,1,-0.43,-0.34,-0.70,-12.83,7.92,-4.79
1.05,1,-0.41,-0.33,-0.70,-12.62,8.63,-3.18
1.05,1,-0.42,-0.35,-0.69,-14.59,7.92,-0.43
1.06,1,-0.45,-0.34,-0.72,-12.73,0.00,7.18
1.06,1,-0.43,-0.34,-0.71,-11.15,-9.13,2.21
1.06,1,-0.44,-0.34,-0.69,-13.50,-7.66,1.92
1.06,1,-0.45,-0.34,-0.68,-12.95,-7.08,0.21
1.07,1,-0.45,-0.35,-0.68,-15.14,-2.92,-1.56
1.07,1,-0.46,-0.34,-0.70,-15.95,1.08,-3.85
1.07,1,-0.45,-0.34,-0.68,-14.96,1.79,-3.95
1.07,1,-0.45,-0.34,-0.69,-13.68,3.87,-4.28
1.08,1,-0.44,-0.34,-0.70,-12.95,4.82,-3.96
1.08,1,-0.44,-0.34,-0.70,-12.81,4.66,-2.77
1.08,1,-0.42,-0.35,-0.71,-13.82,3.82,-1.88
1.08,1,-0.42,-0.34,-0.70,-12.20,2.96,-1.09
1.09,1,-0.41,-0.34,-0.70,-11.95,1.03,-0.83
1.09,1,-0.41,-0.35,-0.69,-13.13,-2.89,-0.11
1.09,1,-0.41,-0.36,-0.68,-13.62,-8.16,0.24
1.09,1,-0.42,-0.36,-0.67,-12.66,-9.95,2.13
1.1,1,-0.43,-0.34,-0.70,-12.79,-9.05,3.24
1.1,1,-0.45,-0.34,-0.69,-12.71,-8.24,0.73
1.1,1,-0.46,-0.33,-0.68,-13.54,-7.34,1.34
1.1,1,-0.46,-0.34,-0.69,-15.11,-2.52,-1.80
1.11,1,-0.47,-0.34,-0.69,-16.15,4.13,-4.08
1.11,1,-0.45,-0.33,-0.71,-15.53,8.73,-5.59
1.11,1,-0.43,-0.34,-0.70,-16.92,13.16,-7.09
1.11,1,-0.41,-0.33,-0.66,-12.70,3.95,-1.40
1.12,1,-0.43,-0.35,-0.71,-13.14,2.76,-4.34
1.12,1,-0.43,-0.34,-0.70,-14.71,5.56,-3.61
1.12,1,-0.43,-0.33,-0.68,-13.90,2.60,-3.31
1.12,1,-0.43,-0.34,-0.70,-13.43,0.47,-2.31
1.12,1,-0.43,-0.34,-0.68,-13.04,-1.26,-2.85
1.13,1,-0.42,-0.34,-0.70,-14.72,-0.56,-1.59
1.13,1,-0.43,-0.33,-0.69,-15.46,-2.04,-2.00
1.13,1,-0.43,-0.34,-0.70,-14.48,-2.93,-0.12
1.13,1,-0.43,-0.34,-0.69,-13.25,-4.61,-0.08
1.13,1,-0.43,-0.34,-0.69,-13.11,-4.09,-0.98
1.13,1,-0.44,-0.34,-0.70,-14.43,-2.15,-1.13
1.14,1,-0.44,-0.34,-0.69,-14.15,0.21,-1.73
1.14,1,-0.44,-0.34,-0.71,-13.92,4.47,-2.84
1.14,1,-0.43,-0.34,-0.70,-13.15,6.15,-3.69
1.15,1,-0.42,-0.34,-0.70,-13.98,5.54,-4.02
1.15,1,-0.41,-0.34,-0.71,-14.60,3.79,-3.63
1.15,1,-0.41,-0.35,-0.72,-12.63,0.66,-2.38
1.15,1,-0.40,-0.34,-0.72,-11.15,-2.50,0.05
1.15,1,-0.39,-0.34,-0.70,-12.66,-4.47,1.66
1.16,1,-0.40,-0.35,-0.70,-13.21,-7.44,1.07
1.16,1,-0.42,-0.34,-0.71,-13.92,-8.85,1.04
1.16,1,-0.44,-0.34,-0.69,-14.02,-8.13,0.66
1.17,1,-0.45,-0.34,-0.69,-13.48,-6.57,0.60
1.17,1,-0.45,-0.34,-0.68,-13.60,-1.53,-1.24
1.17,1,-0.45,-0.34,-0.69,-15.45,5.77,-3.46
1.17,1,-0.43,-0.33,-0.67,-14.12,2.83,-1.96
1.17,1,-0.46,-0.35,-0.71,-14.35,4.15,-4.40
1.18,1,-0.45,-0.33,-0.70,-14.79,6.51,-5.00
1.18,1,-0.44,-0.33,-0.69,-13.77,4.10,-4.37
1.18,1,-0.43,-0.34,-0.70,-14.04,3.72,-3.23
1.18,1,-0.42,-0.34,-0.70,-14.90,3.33,-3.39
1.18,1,-0.42,-0.34,-0.69,-14.13,1.56,-2.36
1.18,1,-0.40,-0.34,-0.71,-12.74,-0.87,-1.30
1.19,1,-0.41,-0.34,-0.71,-14.27,0.31,-1.81
1.19,1,-0.42,-0.34,-0.70,-14.67,-1.46,-1.38
1.19,1,-0.42,-0.34,-0.70,-13.34,-5.11,-0.06
1.19,1,-0.42,-0.35,-0.70,-12.71,-6.59,0.67
1.2,1,-0.43,-0.34,-0.70,-13.60,-5.31,0.34
1.2,1,-0.44,-0.34,-0.70,-14.22,-3.04,-0.47
1.2,1,-0.44,-0.34,-0.70,-13.99,0.09,-1.43
1.2,1,-0.44,-0.34,-0.71,-13.22,3.48,-3.02
1.2,1,-0.43,-0.34,-0.70,-13.29,5.60,-3.91
1.2,1,-0.42,-0.35,-0.69,-13.73,4.98,-4.07
1.21,1,-0.41,-0.34,-0.70,-14.66,3.37,-3.79
1.21,1,-0.41,-0.34,-0.70,-14.50,1.51,-2.81
1.21,1,-0.40,-0.34,-0.70,-13.58,-1.46,-1.32
1.21,1,-0.41,-0.35,-0.71,-12.48,-3.79,0.27
1.21,1,-0.41,-0.34,-0.71,-11.93,-5.23,1.63
1.22,1,-0.41,-0.34,-0.70,-12.88,-5.34,1.60
1.22,1,-0.43,-0.35,-0.69,-14.08,-6.24,0.40
1.22,1,-0.44,-0.34,-0.70,-13.44,-5.89,1.32
1.22,1,-0.46,-0.34,-0.69,-12.99,-3.29,-0.24
1.22,1,-0.45,-0.34,-0.68,-13.56,-0.76,-2.24
1.23,1,-0.45,-0.34,-0.69,-15.49,1.24,-2.68
1.23,1,-0.45,-0.34,-0.69,-15.74,2.84,-4.13
1.23,1,-0.44,-0.34,-0.69,-14.97,4.23,-4.37
1.23,1,-0.43,-0.34,-0.70,-13.43,4.29,-3.95
1.23,1,-0.43,-0.34,-0.70,-13.62,3.99,-3.31
1.23,1,-0.44,-0.34,-0.70,-14.18,3.18,-2.76
1.23,1,-0.43,-0.34,-0.71,-14.31,0.95,-1.82
1.24,1,-0.42,-0.34,-0.70,-14.35,1.95,-2.77
1.24,1,-0.40,-0.34,-0.70,-13.22,1.90,-2.67
1.24,1,-0.41,-0.34,-0.70,-13.76,-1.22,-1.53
1.24,1,-0.41,-0.34,-0.70,-14.65,-4.64,-0.38
1.25,1,-0.43,-0.34,-0.70,-14.37,-6.59,0.17
1.25,1,-0.44,-0.34,-0.70,-13.69,-6.40,0.27
1.25,1,-0.43,-0.34,-0.70,-13.09,-2.66,-1.44
1.25,1,-0.44,-0.34,-0.70,-13.83,1.38,-2.12
1.25,1,-0.44,-0.34,-0.69,-14.60,2.42,-2.35
1.25,1,-0.43,-0.34,-0.70,-14.40,3.41,-2.90
1.26,1,-0.43,-0.34,-0.70,-13.47,3.95,-3.04
1.26,1,-0.41,-0.35,-0.70,-12.82,3.19,-2.64
1.26,1,-0.42,-0.34,-0.71,-13.02,2.38,-2.50
1.26,1,-0.42,-0.34,-0.72,-14.11,0.02,-1.49
1.26,1,-0.41,-0.35,-0.71,-14.12,-2.08,-0.73
1.27,1,-0.41,-0.34,-0.70,-13.16,-2.73,-0.61
1.27,1,-0.42,-0.34,-0.71,-13.00,-3.69,-0.50
1.27,1,-0.43,-0.34,-0.70,-13.09,-4.87,0.04
1.27,1,-0.44,-0.34,-0.69,-14.14,-5.34,0.16
1.27,1,-0.45,-0.34,-0.70,-14.00,-4.50,0.23
1.27,1,-0.45,-0.34,-0.69,-13.14,-2.10,-0.62
1.28,1,-0.45,-0.33,-0.69,-12.81,0.51,-1.52
1.28,1,-0.44,-0.34,-0.70,-13.31,2.67,-2.46
1.28,1,-0.44,-0.34,-0.70,-14.34,3.45,-3.21
1.28,1,-0.44,-0.34,-0.69,-14.92,3.33,-3.30
1.28,1,-0.44,-0.34,-0.70,-13.73,3.68,-3.38
1.28,1,-0.43,-0.33,-0.69,-13.34,3.02,-3.13
1.29,1,-0.42,-0.34,-0.72,-14.36,1.91,-2.87
1.29,1,-0.41,-0.34,-0.70,-14.82,2.05,-2.50
1.29,1,-0.41,-0.34,-0.72,-14.42,1.27,-2.40
1.29,1,-0.42,-0.34,-0.70,-13.77,-1.53,-1.91
1.29,1,-0.41,-0.34,-0.71,-13.44,-3.47,-1.35
1.3,1,-0.43,-0.34,-0.70,-14.00,-5.11,-0.84
1.3,1,-0.44,-0.34,-0.71,-14.39,-4.17,-0.44
1.3,1,-0.43,-0.34,-0.70,-13.51,-2.61,-0.75
1.3,1,-0.43,-0.34,-0.69,-13.06,-1.46,-0.97
1.3,1,-0.43,-0.34,-0.69,-14.23,-0.11,-1.74
1.3,1,-0.44,-0.35,-0.70,-14.49,1.60,-2.44
1.31,1,-0.44,-0.34,-0.70,-13.37,2.26,-2.63
1.31,1,-0.43,-0.34,-0.71,-13.67,3.47,-3.26
1.31,1,-0.43,-0.34,-0.70,-14.86,2.98,-2.95
1.31,1,-0.41,-0.34,-0.71,-13.93,1.70,-2.37
1.31,1,-0.42,-0.34,-0.70,-12.82,0.69,-1.93
1.32,1,-0.42,-0.34,-0.70,-13.82,0.43,-1.95
1.32,1,-0.43,-0.34,-0.71,-14.56,2.79,-2.88
1.32,1,-0.46,-0.35,-0.72,-14.67,12.21,-6.14
1.32,1,-0.53,-0.37,-0.68,-11.18,36.11,-11.04
1.32,1,-0.45,-0.36,-0.71,-11.26,38.17,-18.73
1.33,1,-0.30,-0.31,-0.63,-20.22,9.98,-15.02
1.33,1,-0.32,-0.25,-0.66,-10.98,-34.13,9.88
1.33,1,-0.35,-0.39,-0.76,14.85,-143.08,48.50
1.36,1,-0.42,-0.28,-0.61,-16.73,-151.17,47.09
1.43,1,-0.53,-0.28,-0.52,-8.94,-68.37,31.92
1.51,1,-0.80,-0.33,-0.65,-22.92,25.88,-2.15
1.58,1,-0.68,-0.23,-0.39,-16.96,45.40,-22.31
1.65,1,-0.79,-0.47,-0.61,-16.50,60.03,-26.38
1.73,1,-0.65,-0.28,-0.55,-0.91,20.29,-11.63
1.8,1,-0.57,-0.40,-0.58,-24.99,37.25,-21.15
1.88,1,-0.49,-0.26,-0.48,-4.41,30.15,-0.25
1.95,1,-0.52,-0.30,-0.68,-16.69,49.69,-27.05
2.03,1,-0.52,-0.32,-0.67,-21.85,43.04,-3.70
2.1,1,-0.39,-0.35,-0.64,-8.31,32.02,-15.96
2.17,1,-0.48,-0.41,-0.58,-18.76,90.40,-32.84
2.25,1,-0.55,-0.23,-0.53,-17.74,39.06,-18.61
2.32,1,-0.50,-0.33,-0.86,-11.80,2.09,1.78
2.4,1,-0.31,-0.34,-0.75,-16.44,-36.27,13.50
2.47,1,-0.32,-0.30,-0.63,-25.56,-61.23,25.07
2.55,1,-0.43,-0.27,-0.66,-9.41,-35.56,12.11
2.62,1,-0.58,-0.57,-0.72,-36.25,-33.40,7.53
2.69,1,-0.74,-0.29,-0.62,-9.38,-22.51,-3.58
2.77,1,-0.62,-0.39,-0.67,-13.27,37.93,-18.26
2.84,1,-0.49,-0.29,-0.60,6.90,42.37,-15.51
2.92,1,-0.27,-0.36,-0.48,-18.25,24.64,-20.99
2.99,1,-0.44,-0.28,-0.68,-15.85,-18.72,0.09
3.07,1,-0.39,-0.25,-0.92,-15.21,-96.92,33.55
3.14,1,-0.31,-0.26,-0.75,-9.92,-54.46,18.28
3.21,1,-0.61,-0.28,-0.74,-21.29,-46.36,7.24
3.29,1,-0.53,-0.38,-0.70,-23.55,-33.82,8.82
3.36,1,-0.58,-0.33,-0.65,-19.66,11.52,-5.76
3.44,1,-0.81,-0.46,-1.06,10.30,9.12,1.27
3.51,1,-0.53,-0.25,-0.70,-14.51,60.65,-28.76
3.59,1,-0.39,-0.31,-0.53,-9.02,95.71,-35.26
3.66,1,-0.45,-0.38,-0.85,-31.71,49.63,-25.40
3.73,1,-0.35,-0.28,-0.58,12.37,-45.99,36.83
3.81,1,-0.29,-0.37,-0.76,-29.18,-83.07,34.00
3.88,1,-0.38,-0.26,-0.55,-19.35,-39.05,27.70
3.96,1,-0.69,-0.20,-0.73,-15.15,-26.06,8.85
4.03,1,-0.67,-0.32,-0.56,-23.50,-36.15,8.95
4.11,1,-0.70,-0.34,-0.48,-17.60,-1.76,-0.20
4.18,1,-0.71,-0.33,-0.52,-9.91,9.39,-8.16
4.26,1,-0.74,0.16,-0.16,-22.15,2.05,-29.67
4.33,1,-0.77,-0.14,-0.56,-17.45,16.17,-16.24
4.4,1,-0.68,-0.29,-0.54,-17.61,21.40,-17.63
4.48,1,-0.62,-0.28,-0.64,-10.43,40.87,-18.23
4.55,1,-0.55,-0.28,-0.64,-13.79,78.32,-25.95
4.63,1,-0.56,-0.41,-0.55,-17.51,51.64,-20.15
4.7,1,-0.47,-0.34,-0.61,-7.27,13.65,5.37
4.78,1,-0.50,-0.38,-1.10,30.95,-80.28,43.49
4.85,1,-0.39,-0.35,-0.99,4.79,-91.24,36.08
4.92,1,-0.45,-0.44,-0.75,-41.15,-81.32,34.17
5.0,1,-0.65,-0.19,-0.72,-15.63,-97.44,43.89
5.07,1,-0.63,-0.71,-0.25,-21.18,-91.84,13.26
5.15,1,-0.67,-0.39,-0.52,-23.14,-95.84,26.20
5.22,1,-0.72,-0.27,-0.48,-9.79,18.11,2.74
5.3,1,-0.66,-0.25,-0.57,-15.40,89.09,-27.82
5.37,1,-0.71,-0.33,-0.59,-11.01,148.37,-44.82
5.45,1,-0.63,-0.32,-0.55,-14.67,147.50,-44.74
5.52,1,-0.58,-0.47,-0.58,11.18,71.25,-31.17
5.59,1,-0.64,-0.28,-0.51,-39.09,18.97,-20.31
5.67,1,-0.80,-0.40,-0.25,-12.26,-84.06,30.56
5.74,1,-0.27,-0.19,-0.69,-28.79,-93.63,32.18
5.82,1,-0.87,-0.25,-0.45,-8.92,-52.34,21.22
5.89,1,-0.84,-0.26,-0.51,-9.16,-38.36,18.18
5.96,1,-1.57,-0.78,-0.37,-0.53,-26.24,13.88
6.04,1,-0.61,-0.41,-0.53,-5.63,16.81,-7.07
6.11,1,-0.78,-0.30,-0.44,-10.74,12.56,-12.68
6.18,1,-0.65,-0.23,-0.44,-13.68,9.31,1.45
6.26,1,-0.75,-0.26,-0.58,-12.61,-0.10,-10.14
6.34,1,-0.71,-0.38,-0.64,-20.16,2.51,-6.66
6.41,1,-0.76,-0.28,-0.49,-17.20,38.21,-20.77
6.48,1,-0.68,-0.30,-0.70,-31.63,73.21,-27.18
6.56,1,-0.62,-0.38,-0.49,-10.89,55.88,-18.73
6.63,1,-0.69,-0.63,-0.64,-3.50,37.04,2.22
6.71,1,-0.45,-0.27,-0.51,-8.44,-54.32,19.22
6.78,1,-0.50,-0.29,-0.58,-17.92,-132.32,39.96
6.86,1,-0.61,-0.18,-0.69,-5.09,-178.15,57.34
6.93,1,-0.61,-0.50,-0.53,-7.48,-125.76,33.30
7.0,1,-0.70,-0.23,-0.35,-17.57,-25.69,-4.71
7.08,1,-0.67,-0.12,-0.45,-24.96,56.10,-24.86
7.16,1,-0.78,-0.29,-0.46,-19.11,111.46,-25.95
7.23,1,-0.77,-0.26,-0.51,-11.70,116.02,-21.81
7.3,1,-0.70,-0.12,-0.78,-11.28,86.89,-21.82
7.38,1,-0.76,-0.55,-0.59,32.57,108.73,-41.72
7.45,1,-0.89,-0.67,-0.53,-34.33,12.27,-22.99
7.53,1,-0.91,-0.42,-0.46,-39.75,35.25,-15.45
7.6,1,-0.61,-0.15,-0.78,-12.63,-71.45,16.96
7.68,1,-0.63,-0.33,-0.48,-16.05,-101.59,23.40
7.75,1,-0.72,-0.35,-0.27,-18.63,-52.79,32.11
7.82,1,-1.21,-0.39,-0.53,-6.99,-15.76,2.95
7.9,1,-0.86,-0.25,-0.70,-35.60,29.98,-18.94
7.97,1,-0.60,0.01,-0.53,-13.91,24.83,-2.93
8.04,1,-0.57,-0.25,-0.39,-9.81,-4.00,1.57
8.12,1,-0.72,-0.39,-0.50,-8.93,7.69,2.72
8.2,1,-0.60,-0.43,-0.64,-5.88,15.67,-12.39
8.27,1,-0.74,-0.30,-0.57,-12.62,37.91,-15.11
8.34,1,-0.66,-0.33,-0.66,-13.56,47.40,-11.92
8.42,1,-0.49,-0.28,-0.56,-15.45,46.22,-13.18
8.49,1,-0.51,-0.51,-0.45,3.16,-47.80,6.34
8.57,1,-0.55,-0.37,-0.72,-17.30,-139.81,29.34
8.64,1,-0.46,-0.59,-0.80,-8.55,-180.70,69.70
8.72,1,-0.61,-0.38,-0.34,-9.32,-191.60,51.24
8.79,1,-0.65,-0.30,-0.26,-20.62,-88.95,22.95
8.86,1,-0.76,-0.17,-0.33,-8.62,-33.66,15.35
8.94,1,-0.79,-0.26,-0.19,-7.46,62.96,-13.76
9.01,1,-0.74,-0.28,-0.43,-20.78,151.62,-56.55
9.09,1,-0.61,-0.21,-0.45,-17.04,182.16,-47.94
9.16,1,-0.57,-0.18,-0.51,39.08,109.52,-20.80
9.24,1,-0.31,-0.21,-0.58,-23.43,50.67,-39.02
9.31,1,-0.12,-0.39,-0.19,7.82,-13.92,-1.66
9.38,1,-0.75,-0.37,-0.86,-0.90,-58.91,13.44
9.46,1,-0.64,-0.31,-0.65,-7.76,-79.64,19.21
9.53,1,-1.07,-0.21,-0.58,21.63,-55.47,17.38
9.6,1,-0.16,-0.27,-0.63,-13.16,11.53,-1.00
9.68,1,-0.96,-0.05,-0.80,-12.31,-7.75,-3.73
9.75,1,-0.63,-0.36,-0.61,-26.13,-2.85,2.09
9.83,1,-0.72,-0.20,-0.40,-24.72,-12.24,1.24
9.9,1,-0.82,-0.25,-0.57,-12.52,0.05,0.88
9.98,1,-0.72,-0.31,-0.60,-24.56,32.51,-15.79
10.05,1,-0.63,-0.48,-0.55,-15.31,32.28,-15.04
10.13,1,-0.64,-0.34,-0.73,-14.86,35.46,-18.21
10.2,1,-0.52,-0.35,-0.60,-8.18,23.81,-4.53
10.27,1,-0.64,-0.45,-0.65,-8.32,0.42,2.50
10.35,1,-0.46,-0.34,-0.66,-17.51,-73.34,18.66
10.42,1,-0.50,-0.44,-0.80,-44.08,-98.30,20.58
10.5,1,-0.78,-0.36,-1.10,-17.92,-180.76,55.38
10.57,1,-0.44,-0.29,-0.28,-10.25,-96.11,23.16
10.65,1,-0.81,-0.27,-0.36,-14.45,-21.26,-1.08
10.72,1,-0.72,-0.32,-0.49,-20.57,92.20,-44.30
10.8,1,-0.62,-0.27,-0.62,-15.36,144.40,-58.37
10.87,1,-0.74,-0.26,-0.70,-44.14,106.61,-14.02
10.94,1,-0.81,-0.20,-1.14,10.27,30.90,-26.62
11.02,1,-0.40,-0.36,-0.62,13.64,-28.92,21.94
11.09,1,-0.82,-0.49,-0.67,-27.15,-1.35,-8.06
11.17,1,-0.90,-0.38,-0.65,-3.34,-34.27,18.13
11.24,1,-1.01,-0.30,-0.39,-28.20,-45.56,9.11
11.32,1,-0.60,-0.27,-0.42,-14.02,-63.18,15.24
11.39,1,-0.60,-0.31,-0.48,-19.20,-40.39,9.15
11.46,1,-0.79,-0.25,-0.47,-11.08,-6.59,1.84
11.54,1,-0.52,-0.32,-0.38,-22.62,-5.92,2.20
11.61,1,-0.65,-0.19,-0.43,-2.53,16.42,-6.52
11.69,1,-0.71,-0.23,-0.44,-10.50,17.07,-10.31
11.76,1,-0.77,-0.26,-0.51,-12.92,26.12,-7.32
11.84,1,-0.77,-0.24,-0.50,-17.79,45.42,-21.41
11.91,1,-0.69,-0.26,-0.51,-17.15,57.47,-25.68
11.98,1,-0.58,-0.35,-0.44,-16.76,31.48,-7.05
12.06,1,-0.40,-0.23,-0.57,-15.14,17.36,9.35
12.13,1,-0.39,-0.21,-0.70,-21.15,-27.99,9.05
12.21,1,-0.53,-0.58,-0.89,10.89,-78.80,19.05
12.28,1,-0.32,-0.32,-0.31,-16.11,-94.38,14.79
12.36,1,-0.69,-0.38,-0.70,-29.69,-34.50,0.41
12.43,1,-0.68,-0.34,-0.62,-22.80,-23.45,-0.74
12.5,1,-0.28,-0.36,-0.83,8.41,13.08,-20.39
12.58,1,-0.55,-0.23,-0.55,-15.07,56.52,-22.81
12.66,1,-0.59,-0.38,-0.68,-17.37,89.41,-20.44
12.73,1,-0.53,-0.33,-0.66,-12.66,91.37,-18.35
12.8,1,-0.32,-0.14,-1.09,-29.78,48.06,-33.22
12.87,1,-0.39,-0.22,-0.59,17.93,45.63,2.43
12.95,1,-0.45,-0.15,-0.34,-21.76,-19.93,-11.67
13.02,1,-0.66,-0.14,-0.85,-21.84,-10.41,-5.79
13.1,1,-0.46,-0.32,-0.61,-17.69,-47.36,11.44
13.17,1,-0.36,-0.34,-0.63,-10.85,-28.17,0.05
13.25,1,-0.54,-0.39,-0.64,-20.73,-16.32,-8.67
13.32,1,-1.24,-0.22,-0.24,-13.52,18.10,-8.42
13.4,1,-0.87,-0.02,-0.58,-14.08,-9.17,-5.56
13.47,1,-0.59,-0.31,-0.59,-16.24,13.98,-13.84
13.54,1,-0.58,-0.32,-0.58,-17.87,5.76,-4.22
13.62,1,-0.58,-0.29,-0.59,-18.87,4.59,-11.18
13.69,1,-0.65,-0.31,-0.58,-11.54,15.85,-9.50
13.77,1,-0.64,-0.30,-0.58,-11.95,41.69,-16.64
13.84,1,-0.59,-0.32,-0.59,-7.18,64.18,-12.62
13.92,1,-0.50,-0.32,-0.57,-11.26,60.60,-4.30
13.99,1,-0.48,-0.31,-0.72,5.38,15.43,5.88
14.07,1,-0.33,-0.16,-0.40,-2.04,-77.01,27.33
14.14,1,-0.51,-0.33,-0.56,-15.28,-108.48,40.25
14.22,1,-0.61,-0.24,-0.77,-10.20,-85.52,19.89
14.29,1,-0.66,-0.30,-0.63,-16.83,-67.98,-2.82
14.36,1,-0.59,-0.24,-0.49,-26.57,-32.83,-7.58
14.44,1,-0.65,-0.29,-0.51,-21.87,-3.92,-16.53
14.51,1,-0.66,-0.30,-0.58,-11.92,29.14,-10.03
14.59,1,-0.56,-0.28,-0.64,-15.37,64.04,-12.52
14.66,1,-0.44,-0.36,-0.48,-25.60,88.67,-19.44
14.73,1,-0.46,-0.58,-0.62,44.25,90.06,-19.68
14.81,1,-0.26,-0.50,-0.68,-25.32,48.25,-20.67
14.88,1,-0.48,-0.41,-0.75,-15.25,-1.23,35.53
14.96,1,-0.18,-0.37,-0.30,-27.09,-84.31,27.88
15.03,1,-0.48,-0.28,-0.47,-2.37,-56.47,25.98
15.11,1,-0.77,-0.41,-0.09,-28.04,12.15,-51.94
15.18,1,0.36,0.01,-0.49,-49.87,105.17,-63.58
15.25,1,-0.64,-0.44,-1.11,-7.26,7.76,-16.08
15.33,1,-0.31,-0.32,-0.64,-9.86,-31.44,7.11
15.4,1,-0.51,-0.17,-0.72,7.45,-42.85,16.94
15.48,1,-0.54,-0.32,-0.60,-8.92,-22.62,10.55
15.55,1,-0.57,-0.32,-0.60,-17.33,7.73,1.50
15.62,1,-0.59,-0.33,-0.87,-8.03,28.54,0.56
15.7,1,-0.51,-0.38,-0.71,5.04,52.88,-2.33
15.77,1,-0.44,-0.30,-0.69,-7.84,56.06,-6.90
15.85,1,-0.35,-0.36,-0.71,-9.89,43.01,-15.72
15.92,1,-0.27,-0.57,-0.72,-13.69,-10.65,-7.66
16.0,1,-0.27,-0.33,-0.79,-28.73,-85.86,10.66
