time(s),boardID,aX,aY,aZ,gX,gY,gZ
0.51,1,-0.05,-0.38,-0.82,-13.62,-0.18,-1.59
0.52,1,-0.05,-0.39,-0.81,-14.70,0.16,-1.84
0.52,1,-0.05,-0.38,-0.82,-14.40,0.17,-1.88
0.53,1,-0.05,-0.38,-0.83,-13.41,0.50,-1.84
0.54,1,-0.05,-0.38,-0.82,-13.59,0.77,-1.68
0.55,1,-0.05,-0.38,-0.81,-13.98,0.21,-1.57
0.56,1,-0.04,-0.38,-0.82,-14.44,0.05,-1.47
0.56,1,-0.05,-0.38,-0.82,-14.40,-0.34,-1.42
0.57,1,-0.05,-0.38,-0.82,-13.52,-0.47,-1.42
0.57,1,-0.05,-0.38,-0.82,-13.23,-0.49,-1.39
0.57,1,-0.05,-0.38,-0.83,-13.44,-0.79,-1.29
0.57,1,-0.05,-0.38,-0.81,-14.42,-0.93,-1.44
0.57,1,-0.05,-0.38,-0.82,-14.40,-0.92,-1.67
0.58,1,-0.05,-0.38,-0.82,-13.02,-0.44,-1.74
0.58,1,-0.05,-0.37,-0.82,-12.98,-0.35,-1.98
0.58,1,-0.05,-0.38,-0.81,-13.76,-0.01,-1.85
0.58,1,-0.05,-0.39,-0.82,-14.26,-0.35,-1.77
0.59,1,-0.05,-0.38,-0.82,-14.24,-0.40,-1.61
0.59,1,-0.05,-0.38,-0.81,-13.63,-0.52,-1.50
0.59,1,-0.05,-0.38,-0.82,-13.13,-0.18,-1.46
0.59,1,-0.05,-0.38,-0.82,-14.35,-0.53,-1.34
0.59,1,-0.05,-0.38,-0.82,-14.34,-0.72,-1.16
0.59,1,-0.05,-0.37,-0.82,-13.63,-0.47,-1.50
0.6,1,-0.05,-0.37,-0.82,-13.15,-0.40,-1.37
0.6,1,-0.05,-0.37,-0.82,-13.63,-0.48,-1.69
0.6,1,-0.05,-0.38,-0.82,-14.32,-0.81,-1.85
0.6,1,-0.05,-0.38,-0.82,-14.31,-0.45,-1.78
0.61,1,-0.05,-0.38,-0.81,-13.40,-0.24,-1.67
0.61,1,-0.05,-0.38,-0.82,-13.18,0.18,-1.54
0.61,1,-0.04,-0.38,-0.82,-13.60,0.19,-1.52
0.61,1,-0.05,-0.38,-0.82,-14.31,0.11,-1.38
0.62,1,-0.05,-0.38,-0.81,-14.66,-0.11,-1.54
0.62,1,-0.05,-0.37,-0.82,-13.95,0.16,-1.60
0.62,1,-0.05,-0.38,-0.81,-13.02,0.67,-1.68
0.62,1,-0.05,-0.38,-0.82,-14.03,0.21,-1.68
0.62,1,-0.04,-0.38,-0.83,-14.63,-0.21,-1.80
0.63,1,-0.05,-0.38,-0.81,-13.60,-0.43,-1.76
0.63,1,-0.06,-0.38,-0.82,-13.02,-0.56,-1.59
0.63,1,-0.05,-0.38,-0.82,-13.93,-1.08,-1.16
0.63,1,-0.05,-0.38,-0.82,-14.63,-1.24,-1.27
0.63,1,-0.05,-0.38,-0.82,-14.45,-0.88,-1.39
0.64,1,-0.05,-0.38,-0.82,-12.93,-0.36,-1.64
0.64,1,-0.05,-0.38,-0.82,-13.92,-0.38,-1.84
0.64,1,-0.05,-0.38,-0.83,-14.27,-0.54,-1.96
0.64,1,-0.05,-0.38,-0.80,-13.96,-0.40,-1.87
0.64,1,-0.05,-0.38,-0.82,-12.95,-0.05,-1.74
0.65,1,-0.05,-0.38,-0.82,-13.02,-0.11,-1.78
0.65,1,-0.05,-0.38,-0.83,-14.20,-0.27,-1.53
0.65,1,-0.05,-0.38,-0.83,-14.56,-0.15,-1.29
0.65,1,-0.05,-0.38,-0.81,-14.37,-0.27,-1.31
0.66,1,-0.05,-0.37,-0.83,-13.66,-0.64,-1.25
0.66,1,-0.05,-0.38,-0.82,-12.92,-0.60,-1.28
0.66,1,-0.04,-0.38,-0.82,-13.78,-0.82,-1.43
0.66,1,-0.05,-0.38,-0.82,-14.34,-0.44,-1.61
0.67,1,-0.05,-0.38,-0.82,-14.37,-0.37,-1.63
0.67,1,-0.05,-0.38,-0.82,-13.09,0.05,-1.69
0.67,1,-0.04,-0.38,-0.81,-12.95,0.20,-1.75
0.67,1,-0.05,-0.39,-0.82,-13.84,0.08,-1.53
0.67,1,-0.04,-0.38,-0.82,-14.58,-0.02,-1.48
0.67,1,-0.05,-0.38,-0.81,-14.49,0.05,-1.61
0.68,1,-0.05,-0.37,-0.82,-13.56,0.44,-1.47
0.68,1,-0.05,-0.38,-0.82,-13.09,0.37,-1.57
0.68,1,-0.05,-0.38,-0.83,-13.97,0.12,-1.72
0.68,1,-0.05,-0.38,-0.83,-14.34,-0.11,-1.79
0.69,1,-0.05,-0.38,-0.83,-14.43,-0.40,-1.55
0.69,1,-0.04,-0.39,-0.82,-13.07,-0.32,-1.64
0.69,1,-0.06,-0.38,-0.81,-13.46,-0.63,-1.43
0.69,1,-0.05,-0.38,-0.83,-14.50,-1.02,-1.44
0.7,1,-0.05,-0.38,-0.82,-14.64,-0.92,-1.54
0.7,1,-0.05,-0.38,-0.82,-13.34,-0.74,-1.38
0.7,1,-0.05,-0.38,-0.82,-13.14,-0.60,-1.70
0.71,1,-0.05,-0.38,-0.83,-13.27,-0.44,-1.80
0.71,1,-0.04,-0.38,-0.83,-13.95,-0.44,-1.93
0.71,1,-0.05,-0.39,-0.82,-14.64,-0.31,-1.81
0.72,1,-0.06,-0.38,-0.82,-13.90,-0.15,-1.69
0.72,1,-0.05,-0.38,-0.82,-12.98,0.13,-1.66
0.72,1,-0.05,-0.38,-0.82,-13.34,0.11,-1.45
0.72,1,-0.05,-0.37,-0.81,-13.98,-0.37,-1.48
0.72,1,-0.05,-0.38,-0.82,-14.11,-0.58,-1.48
0.73,1,-0.05,-0.38,-0.81,-14.61,-0.56,-1.31
0.73,1,-0.05,-0.39,-0.82,-14.09,-0.66,-1.33
0.73,1,-0.05,-0.38,-0.82,-13.08,-0.38,-1.47
0.73,1,-0.05,-0.37,-0.83,-13.73,-0.34,-1.44
0.74,1,-0.04,-0.37,-0.82,-14.42,-0.22,-1.56
0.74,1,-0.05,-0.37,-0.82,-14.48,-0.13,-1.81
0.74,1,-0.04,-0.37,-0.83,-12.85,0.46,-1.90
0.74,1,-0.05,-0.38,-0.81,-13.97,0.27,-1.76
0.74,1,-0.05,-0.38,-0.82,-14.55,0.13,-1.69
0.75,1,-0.05,-0.38,-0.82,-13.84,0.18,-1.63
0.75,1,-0.05,-0.38,-0.82,-13.07,0.21,-1.47
0.75,1,-0.05,-0.38,-0.81,-13.53,-0.08,-1.49
0.76,1,-0.04,-0.38,-0.82,-14.37,-0.26,-1.54
0.76,1,-0.05,-0.38,-0.81,-14.21,-0.21,-1.40
0.76,1,-0.05,-0.38,-0.82,-12.94,-0.35,-1.75
0.77,1,-0.04,-0.39,-0.81,-13.27,-0.79,-1.79
0.77,1,-0.05,-0.37,-0.82,-14.37,-0.94,-1.62
0.77,1,-0.04,-0.38,-0.83,-14.44,-0.99,-1.70
0.77,1,-0.05,-0.38,-0.82,-13.26,-0.73,-1.51
0.77,1,-0.05,-0.38,-0.82,-13.25,-0.36,-1.66
0.77,1,-0.05,-0.37,-0.81,-13.86,-0.51,-1.45
0.78,1,-0.05,-0.38,-0.81,-14.55,-0.52,-1.52
0.78,1,-0.06,-0.38,-0.82,-14.10,-0.50,-1.47
0.78,1,-0.04,-0.38,-0.82,-13.12,-0.02,-1.46
0.79,1,-0.04,-0.38,-0.82,-13.00,-0.01,-1.66
0.79,1,-0.05,-0.38,-0.82,-13.48,-0.16,-1.51
0.79,1,-0.04,-0.38,-0.82,-14.17,-0.18,-1.85
0.79,1,-0.06,-0.38,-0.81,-14.59,-0.24,-1.67
0.79,1,-0.05,-0.37,-0.83,-13.15,-0.27,-1.48
0.8,1,-0.05,-0.38,-0.82,-12.92,-0.29,-1.57
0.8,1,-0.05,-0.38,-0.82,-13.58,-0.57,-1.33
0.8,1,-0.05,-0.38,-0.82,-14.38,-0.49,-1.32
0.81,1,-0.05,-0.38,-0.81,-14.15,-0.21,-1.36
0.81,1,-0.05,-0.38,-0.82,-13.24,0.05,-1.70
0.82,1,-0.05,-0.38,-0.81,-13.12,0.10,-1.85
0.82,1,-0.05,-0.38,-0.81,-13.09,0.28,-1.89
0.82,1,-0.05,-0.38,-0.82,-14.04,0.08,-1.79
0.82,1,-0.06,-0.39,-0.82,-14.41,0.18,-1.79
0.83,1,-0.05,-0.38,-0.82,-14.44,0.08,-1.49
0.83,1,-0.05,-0.38,-0.82,-14.11,0.07,-1.74
0.83,1,-0.05,-0.38,-0.83,-13.26,0.07,-1.66
0.83,1,-0.05,-0.38,-0.82,-12.96,-0.40,-1.48
0.84,1,-0.05,-0.38,-0.82,-14.18,-0.91,-1.38
0.85,1,-0.05,-0.38,-0.82,-14.64,-1.08,-1.40
0.85,1,-0.04,-0.38,-0.81,-14.19,-0.93,-1.34
0.87,1,-0.05,-0.37,-0.83,-13.27,-0.60,-1.64
0.9,1,-0.06,-0.37,-0.81,-13.00,-0.32,-1.65
0.92,1,-0.05,-0.38,-0.82,-13.60,-0.53,-1.66
0.95,1,-0.04,-0.38,-0.82,-14.42,-0.53,-1.62
0.96,1,-0.04,-0.38,-0.81,-14.21,-0.63,-1.54
0.96,1,-0.05,-0.38,-0.82,-13.10,-0.20,-1.63
0.96,1,-0.04,-0.38,-0.82,-13.09,-0.01,-1.53
0.96,1,-0.05,-0.38,-0.81,-13.95,-0.25,-1.42
0.97,1,-0.05,-0.38,-0.82,-14.62,-0.23,-1.53
0.98,1,-0.05,-0.38,-0.81,-12.87,0.02,-1.70
0.99,1,-0.05,-0.38,-0.82,-12.99,0.01,-1.47
0.99,1,-0.04,-0.37,-0.82,-13.69,-0.19,-1.50
1.0,1,-0.05,-0.38,-0.82,-14.40,-0.38,-1.68
1.0,1,-0.05,-0.38,-0.82,-13.63,-0.03,-1.65
1.0,1,-0.05,-0.38,-0.82,-13.21,-0.19,-1.66
1.01,1,-0.04,-0.39,-0.82,-13.49,-0.40,-1.49
1.01,1,-0.05,-0.38,-0.82,-14.56,-0.62,-1.33
1.01,1,-0.05,-0.38,-0.82,-14.29,-0.37,-1.48
1.01,1,-0.05,-0.38,-0.82,-13.42,0.04,-1.60
1.02,1,-0.05,-0.38,-0.82,-13.09,0.26,-1.86
1.02,1,-0.05,-0.38,-0.82,-13.57,0.57,-1.77
1.02,1,-0.04,-0.38,-0.82,-14.45,-0.04,-1.90
1.03,1,-0.05,-0.38,-0.82,-14.53,-0.11,-1.70
1.03,1,-0.05,-0.38,-0.83,-13.64,0.01,-1.72
1.03,1,-0.05,-0.38,-0.82,-13.02,-0.15,-1.66
1.04,1,-0.04,-0.37,-0.83,-13.53,-0.69,-1.52
1.04,1,-0.05,-0.38,-0.83,-13.85,-0.85,-1.32
1.04,1,-0.05,-0.38,-0.82,-14.34,-1.00,-1.44
1.04,1,-0.04,-0.38,-0.82,-14.59,-1.12,-1.49
1.04,1,-0.05,-0.38,-0.82,-14.34,-0.93,-1.54
1.04,1,-0.05,-0.37,-0.81,-13.38,-0.50,-1.63
1.05,1,-0.05,-0.38,-0.82,-13.04,-0.34,-1.65
1.05,1,-0.05,-0.38,-0.82,-13.15,-0.05,-1.70
1.05,1,-0.05,-0.38,-0.82,-14.53,-0.10,-1.47
1.05,1,-0.05,-0.38,-0.82,-14.47,-0.24,-1.37
1.05,1,-0.05,-0.38,-0.81,-14.12,-0.18,-1.31
1.06,1,-0.05,-0.38,-0.82,-13.12,0.05,-1.34
1.06,1,-0.05,-0.38,-0.82,-13.18,0.02,-1.42
1.06,1,-0.04,-0.38,-0.82,-13.69,0.14,-1.50
1.06,1,-0.04,-0.38,-0.82,-14.48,-0.30,-1.61
1.07,1,-0.05,-0.38,-0.83,-14.27,-0.36,-1.68
1.07,1,-0.04,-0.39,-0.82,-14.10,-0.44,-1.60
1.07,1,-0.05,-0.38,-0.82,-13.31,-0.37,-1.56
1.07,1,-0.05,-0.38,-0.82,-13.52,-0.30,-1.56
1.07,1,-0.05,-0.37,-0.83,-14.25,-0.39,-1.58
1.07,1,-0.04,-0.38,-0.83,-14.53,-0.26,-1.63
1.08,1,-0.05,-0.38,-0.82,-14.64,-0.20,-1.63
1.08,1,-0.05,-0.39,-0.81,-13.72,-0.01,-1.85
1.08,1,-0.04,-0.38,-0.82,-12.77,0.24,-1.78
1.09,1,-0.05,-0.38,-0.81,-13.51,0.20,-1.82
1.09,1,-0.05,-0.37,-0.82,-14.24,-0.18,-1.64
1.09,1,-0.04,-0.38,-0.83,-14.29,-0.38,-1.50
1.09,1,-0.05,-0.38,-0.83,-13.37,-0.27,-1.85
1.09,1,-0.05,-0.38,-0.81,-12.84,-0.13,-1.59
1.1,1,-0.05,-0.38,-0.81,-12.94,-0.47,-1.59
1.1,1,-0.05,-0.38,-0.81,-14.46,-0.82,-1.47
1.1,1,-0.05,-0.38,-0.82,-14.44,-1.02,-1.40
1.1,1,-0.05,-0.38,-0.82,-14.25,-0.85,-1.63
1.1,1,-0.05,-0.38,-0.82,-13.34,-0.63,-1.45
1.11,1,-0.05,-0.38,-0.82,-13.08,-0.50,-1.58
1.11,1,-0.05,-0.38,-0.82,-13.98,-0.53,-1.63
1.11,1,-0.05,-0.38,-0.82,-14.40,-0.21,-1.69
1.11,1,-0.05,-0.38,-0.82,-13.88,-0.07,-1.70
1.12,1,-0.05,-0.38,-0.82,-13.05,0.28,-1.54
1.12,1,-0.05,-0.38,-0.81,-12.94,0.36,-1.53
1.12,1,-0.05,-0.38,-0.82,-14.13,0.05,-1.52
1.12,1,-0.05,-0.38,-0.82,-14.54,0.02,-1.39
1.12,1,-0.05,-0.38,-0.82,-13.54,-0.21,-1.34
1.12,1,-0.05,-0.38,-0.82,-12.97,-0.25,-1.43
1.13,1,-0.04,-0.38,-0.82,-13.60,-0.40,-1.56
1.13,1,-0.05,-0.38,-0.83,-14.37,-0.47,-1.63
1.13,1,-0.05,-0.37,-0.82,-14.60,-0.31,-1.56
1.13,1,-0.05,-0.38,-0.82,-13.91,-0.12,-1.81
1.13,1,-0.05,-0.38,-0.82,-12.99,-0.06,-1.79
1.14,1,-0.05,-0.37,-0.82,-13.37,-0.15,-1.70
1.14,1,-0.05,-0.38,-0.81,-13.84,-0.11,-1.66
1.14,1,-0.04,-0.38,-0.82,-14.50,-0.01,-1.78
1.14,1,-0.05,-0.38,-0.82,-13.36,0.14,-1.53
1.14,1,-0.04,-0.38,-0.82,-12.98,0.05,-1.39
1.15,1,-0.04,-0.38,-0.82,-13.67,-0.18,-1.44
1.15,1,-0.05,-0.38,-0.82,-14.29,-0.46,-1.66
1.15,1,-0.05,-0.38,-0.81,-14.12,-0.61,-1.77
1.15,1,-0.05,-0.38,-0.82,-13.02,-0.31,-1.72
1.16,1,-0.05,-0.38,-0.82,-12.90,-0.43,-1.61
1.16,1,-0.05,-0.38,-0.82,-13.79,-0.44,-1.52
1.16,1,-0.05,-0.38,-0.82,-14.48,-0.73,-1.43
1.16,1,-0.05,-0.38,-0.82,-13.49,-0.60,-1.49
1.16,1,-0.04,-0.39,-0.82,-12.79,-0.46,-1.40
1.17,1,-0.04,-0.38,-0.81,-13.22,-0.50,-1.43
1.17,1,-0.04,-0.38,-0.82,-14.27,-0.39,-1.53
1.17,1,-0.05,-0.38,-0.82,-14.44,-0.33,-1.70
1.17,1,-0.05,-0.38,-0.82,-13.48,0.37,-1.80
1.17,1,-0.05,-0.38,-0.82,-12.98,0.48,-1.67
1.18,1,-0.05,-0.38,-0.82,-13.23,0.41,-1.66
1.18,1,-0.05,-0.38,-0.83,-13.86,0.06,-1.47
1.18,1,-0.05,-0.38,-0.82,-14.47,-0.18,-1.28
1.19,1,-0.05,-0.38,-0.82,-14.55,-0.21,-1.40
1.19,1,-0.05,-0.38,-0.81,-13.31,-0.22,-1.44
1.19,1,-0.04,-0.38,-0.83,-13.55,-0.31,-1.49
1.19,1,-0.05,-0.38,-0.82,-14.48,-0.56,-1.45
1.19,1,-0.05,-0.38,-0.82,-14.70,-0.56,-1.70
1.19,1,-0.05,-0.38,-0.81,-13.78,-0.43,-1.76
1.2,1,-0.04,-0.38,-0.82,-13.14,-0.07,-1.69
1.2,1,-0.05,-0.38,-0.82,-13.64,0.11,-1.67
1.2,1,-0.05,-0.37,-0.82,-14.26,-0.03,-1.53
1.2,1,-0.05,-0.38,-0.81,-14.57,-0.08,-1.60
1.21,1,-0.05,-0.38,-0.82,-14.10,-0.09,-1.75
1.21,1,-0.05,-0.38,-0.82,-13.01,-0.18,-1.60
1.21,1,-0.05,-0.38,-0.83,-13.30,-0.32,-1.50
1.21,1,-0.05,-0.38,-0.82,-14.44,-0.73,-1.62
1.21,1,-0.05,-0.38,-0.82,-14.08,-0.50,-1.45
1.22,1,-0.05,-0.38,-0.81,-13.63,-0.57,-1.49
1.22,1,-0.05,-0.38,-0.82,-13.03,-0.47,-1.64
1.22,1,-0.05,-0.38,-0.82,-14.02,-0.71,-1.67
1.22,1,-0.05,-0.39,-0.83,-14.51,-0.80,-1.60
1.22,1,-0.05,-0.39,-0.81,-14.35,-0.89,-1.56
1.23,1,-0.05,-0.38,-0.81,-13.38,-0.47,-1.66
1.23,1,-0.05,-0.38,-0.81,-13.37,-0.28,-1.57
1.23,1,-0.05,-0.38,-0.83,-14.12,-0.16,-1.47
1.23,1,-0.05,-0.38,-0.81,-14.65,0.02,-1.50
1.24,1,-0.04,-0.38,-0.82,-13.69,0.08,-1.68
1.24,1,-0.05,-0.38,-0.82,-12.86,0.19,-1.40
1.24,1,-0.05,-0.38,-0.82,-13.60,0.32,-1.59
1.24,1,-0.05,-0.38,-0.81,-14.35,-0.09,-1.55
1.24,1,-0.05,-0.38,-0.82,-14.62,-0.29,-1.60
1.24,1,-0.05,-0.38,-0.82,-13.79,-0.35,-1.47
1.25,1,-0.05,-0.38,-0.82,-13.24,-0.21,-1.60
1.25,1,-0.05,-0.38,-0.82,-14.33,-0.57,-1.36
1.25,1,-0.05,-0.38,-0.82,-14.66,-0.66,-1.54
1.25,1,-0.05,-0.38,-0.82,-13.46,-0.38,-1.37
1.26,1,-0.04,-0.38,-0.81,-13.22,-0.10,-1.77
1.26,1,-0.05,-0.39,-0.82,-13.69,-0.11,-1.69
1.26,1,-0.05,-0.38,-0.82,-14.40,-0.21,-1.76
1.26,1,-0.04,-0.38,-0.82,-14.56,-0.34,-1.72
1.26,1,-0.05,-0.38,-0.82,-14.28,-0.23,-1.69
1.27,1,-0.05,-0.39,-0.81,-13.46,-0.18,-1.65
1.27,1,-0.04,-0.38,-0.83,-13.22,-0.32,-1.53
1.27,1,-0.05,-0.38,-0.81,-13.95,-0.61,-1.47
1.27,1,-0.05,-0.38,-0.82,-14.60,-0.73,-1.51
1.27,1,-0.05,-0.38,-0.82,-13.86,-0.61,-1.50
1.27,1,-0.05,-0.38,-0.82,-13.15,-0.63,-1.61
1.28,1,-0.05,-0.38,-0.82,-13.13,-0.63,-1.56
1.28,1,-0.05,-0.37,-0.82,-13.38,-0.54,-1.53
1.28,1,-0.05,-0.38,-0.82,-13.95,-0.55,-1.54
1.28,1,-0.05,-0.38,-0.81,-14.39,-0.31,-1.62
1.29,1,-0.05,-0.38,-0.81,-13.78,-0.16,-1.63
1.29,1,-0.04,-0.38,-0.82,-13.18,0.26,-1.60
1.29,1,-0.05,-0.38,-0.82,-14.11,0.03,-1.57
1.29,1,-0.05,-0.38,-0.82,-14.40,0.05,-1.37
1.29,1,-0.05,-0.38,-0.82,-13.11,0.13,-1.40
1.3,1,-0.05,-0.38,-0.82,-13.43,0.04,-1.48
1.3,1,-0.05,-0.38,-0.82,-14.39,-0.11,-1.53
1.3,1,-0.05,-0.38,-0.82,-13.81,-0.09,-1.59
1.31,1,-0.04,-0.38,-0.82,-13.32,0.05,-1.66
1.31,1,-0.05,-0.38,-0.82,-13.04,0.01,-1.71
1.31,1,-0.05,-0.38,-0.82,-14.39,-0.34,-1.68
1.31,1,-0.04,-0.38,-0.83,-14.65,-0.67,-1.50
1.31,1,-0.05,-0.38,-0.82,-13.72,-0.47,-1.63
1.32,1,-0.05,-0.38,-0.82,-13.10,-0.40,-1.50
1.32,1,-0.05,-0.38,-0.82,-13.69,-0.33,-1.50
1.32,1,-0.04,-0.38,-0.82,-14.47,-0.31,-1.66
1.32,1,-0.04,-0.38,-0.82,-14.30,-0.22,-1.68
1.32,1,-0.05,-0.38,-0.82,-12.90,0.00,-1.66
1.33,1,-0.05,-0.38,-0.82,-12.99,-0.02,-1.58
1.33,1,-0.05,-0.38,-0.83,-14.37,-0.43,-1.68
1.33,1,-0.05,-0.38,-0.82,-14.41,-0.47,-1.68
1.33,1,-0.05,-0.38,-0.82,-14.46,-0.53,-1.51
1.34,1,-0.05,-0.38,-0.82,-13.53,-0.63,-1.52
1.34,1,-0.05,-0.38,-0.82,-12.86,-0.53,-1.45
1.34,1,-0.05,-0.38,-0.83,-14.02,-0.95,-1.44
1.34,1,-0.04,-0.38,-0.82,-14.68,-0.85,-1.38
1.34,1,-0.04,-0.38,-0.81,-14.17,-0.61,-1.52
1.34,1,-0.05,-0.38,-0.82,-13.05,-0.31,-1.85
1.35,1,-0.05,-0.38,-0.82,-13.16,0.06,-1.74
1.35,1,-0.05,-0.38,-0.81,-13.75,0.08,-1.63
1.35,1,-0.04,-0.38,-0.82,-14.23,0.03,-1.58
1.35,1,-0.05,-0.38,-0.82,-14.28,0.00,-1.61
1.35,1,-0.05,-0.38,-0.82,-14.13,0.02,-1.48
1.36,1,-0.05,-0.38,-0.82,-13.22,0.16,-1.42
1.36,1,-0.05,-0.38,-0.81,-13.66,-0.03,-1.48
1.36,1,-0.05,-0.38,-0.83,-14.44,-0.30,-1.47
1.36,1,-0.05,-0.38,-0.82,-14.69,-0.20,-1.69
1.37,1,-0.05,-0.37,-0.82,-14.13,-0.24,-1.56
1.37,1,-0.05,-0.38,-0.82,-13.48,-0.31,-1.59
1.37,1,-0.05,-0.38,-0.82,-12.82,-0.33,-1.66
1.37,1,-0.04,-0.39,-0.81,-14.06,-5.84,1.11
1.37,1,-0.05,-0.38,-0.82,-14.80,-6.60,0.87
1.38,1,-0.04,-0.39,-0.81,-14.06,-5.84,1.11
1.38,1,-0.05,-0.38,-0.82,-14.80,-6.60,0.87
1.38,1,-0.05,-0.37,-0.82,-12.89,-3.75,-0.32
1.38,1,-0.06,-0.39,-0.82,-13.11,-0.15,-2.24
1.39,1,-0.07,-0.39,-0.84,-13.57,3.60,-4.69
1.39,1,-0.10,-0.39,-0.85,-13.77,11.62,-8.03
1.39,1,-0.13,-0.39,-0.84,-13.21,17.48,-11.48
1.39,1,-0.07,-0.34,-0.73,-12.66,-19.31,2.50
1.39,1,-0.22,-0.39,-0.78,-13.50,-157.08,49.65
1.4,1,-0.21,-0.35,-0.83,-11.38,-195.55,70.93
1.4,1,-0.17,-0.37,-0.74,-14.24,-93.81,30.98
1.47,1,-0.45,-0.32,-0.60,-10.38,-4.63,2.03
1.55,1,-0.47,-0.34,-0.68,-6.86,38.92,-14.43
1.63,1,-0.51,-0.37,-0.76,-11.56,63.85,-27.14
1.7,1,-0.54,-0.34,-0.71,-19.39,71.44,-26.40
1.77,1,-0.52,-0.33,-0.63,-24.53,17.13,-4.40
1.85,1,-0.54,-0.32,-0.66,-14.94,-47.23,14.75
1.92,1,-0.58,-0.29,-0.61,-9.95,-72.08,21.84
1.99,1,-0.47,-0.30,-0.58,-13.82,2.69,-6.79
2.07,1,-0.58,-0.33,-0.59,-9.45,15.37,-7.20
2.14,1,-0.59,-0.34,-0.62,-4.54,3.92,-0.85
2.22,1,-0.54,-0.34,-0.69,-9.75,-2.73,4.24
2.29,1,-0.50,-0.34,-0.68,-18.18,-5.06,4.09
2.37,1,-0.49,-0.33,-0.71,-21.21,-11.48,2.97
2.44,1,-0.50,-0.34,-0.71,-17.11,-5.24,1.16
2.51,1,-0.49,-0.34,-0.67,-9.82,15.15,-4.56
2.59,1,-0.49,-0.37,-0.71,-12.17,62.79,-27.88
2.67,1,-0.49,-0.35,-0.70,-11.85,86.68,-40.95
2.74,1,-0.38,-0.31,-0.66,-13.82,35.00,-26.42
2.81,1,-0.47,-0.32,-0.69,-12.86,-116.29,31.73
2.89,1,-0.54,-0.41,-0.77,-1.21,-231.76,77.72
2.97,1,-0.41,-0.34,-0.61,-4.59,-140.69,54.85
3.04,1,-0.52,-0.26,-0.41,-19.27,-20.11,20.98
3.11,1,-0.65,-0.27,-0.42,-14.48,23.79,1.60
3.19,1,-0.71,-0.29,-0.52,-16.21,83.18,-32.56
3.26,1,-0.76,-0.30,-0.53,-6.24,68.84,-39.96
3.33,1,-0.60,-0.28,-0.64,-10.36,29.43,-17.84
3.41,1,-0.72,-0.35,-0.48,-16.58,-8.17,6.18
3.49,1,-0.68,-0.28,-0.48,-22.56,-21.66,14.64
3.56,1,-0.72,-0.27,-0.49,-19.97,-11.79,8.50
3.63,1,-0.69,-0.27,-0.53,-15.46,0.40,-2.57
3.71,1,-0.69,-0.32,-0.54,-10.63,24.89,-11.69
3.78,1,-0.57,-0.34,-0.60,-9.85,6.90,-3.17
3.85,1,-0.61,-0.33,-0.61,-12.48,7.79,-2.59
3.93,1,-0.62,-0.32,-0.60,-12.01,8.01,-2.81
4.0,1,-0.60,-0.32,-0.58,-17.40,19.47,-8.89
4.08,1,-0.56,-0.30,-0.60,-13.71,36.45,-13.29
4.15,1,-0.58,-0.30,-0.59,-8.92,60.82,-22.02
4.23,1,-0.56,-0.32,-0.61,-6.25,68.12,-24.07
4.3,1,-0.59,-0.33,-0.66,-8.01,45.26,-14.88
4.37,1,-0.51,-0.35,-0.67,-16.62,11.89,-4.09
4.45,1,-0.51,-0.36,-0.67,-22.56,-13.90,6.39
4.52,1,-0.53,-0.34,-0.71,-19.43,-42.78,9.34
4.6,1,-0.51,-0.41,-0.83,-20.48,-70.31,17.13
4.67,1,-0.40,-0.38,-0.80,-2.45,-100.81,32.08
4.75,1,-0.68,-0.72,-0.89,10.95,-105.14,60.58
4.82,1,-0.62,0.04,-0.49,-10.34,-85.88,34.05
4.89,1,-0.49,-0.25,-0.42,-11.55,4.80,-14.22
4.97,1,-0.73,-0.40,-0.58,-15.16,79.10,-36.02
5.05,1,-0.72,-0.34,-0.58,-24.27,144.95,-42.66
5.12,1,-0.63,-0.32,-0.58,-27.52,125.05,-35.70
5.19,1,-0.62,-0.31,-0.56,-15.42,46.48,-6.95
5.27,1,-0.66,-0.25,-0.47,-6.08,-45.51,19.26
5.34,1,-0.50,-0.32,-0.60,-5.46,-39.51,10.18
5.41,1,-0.56,-0.31,-0.59,-11.78,15.31,-7.48
5.49,1,-0.55,-0.32,-0.64,-15.75,51.56,-16.77
5.57,1,-0.49,-0.35,-0.73,-25.34,74.42,-24.53
5.64,1,-0.43,-0.35,-0.76,-27.09,44.34,-13.77
5.71,1,-0.43,-0.36,-0.78,-24.88,-13.51,6.42
5.79,1,-0.47,-0.30,-0.71,-14.53,-55.68,16.80
5.86,1,-0.33,-0.36,-0.74,1.70,-44.21,17.48
5.93,1,-0.35,-0.29,-0.64,5.35,-10.66,-2.48
6.01,1,-0.38,-0.34,-0.67,8.31,55.26,-23.59
6.08,1,-0.40,-0.35,-0.79,-4.80,86.69,-42.33
6.16,1,-0.38,-0.39,-0.75,-18.06,66.96,-36.18
6.23,1,-0.43,-0.36,-0.78,-29.02,-7.42,-9.15
6.31,1,-0.48,-0.56,-0.74,-23.84,-94.09,33.67
6.38,1,-0.44,-0.37,-0.73,-20.09,-162.77,61.84
6.46,1,-0.46,-0.36,-0.67,-9.51,-149.03,62.76
6.53,1,-0.40,-0.35,-0.60,-4.63,-80.57,26.20
6.6,1,-0.52,-0.39,-0.81,-6.65,27.08,-20.30
6.68,1,-0.57,-0.24,-0.73,-21.16,99.75,-46.78
6.75,1,-0.68,-0.33,-0.72,1.54,71.62,-41.05
6.83,1,-0.38,-0.32,-0.70,-14.70,54.44,-32.06
6.9,1,-0.38,-0.38,-0.77,-11.14,21.67,-7.74
6.97,1,-0.40,-0.36,-0.67,-21.09,28.62,-22.82
7.05,1,-0.42,-0.35,-0.63,-25.13,37.08,-25.10
7.13,1,-0.38,-0.36,-0.68,-18.98,40.44,-25.54
7.2,1,-0.35,-0.37,-0.76,-11.69,35.42,-17.23
7.27,1,-0.30,-0.39,-0.79,-14.60,20.06,-7.03
7.34,1,-0.25,-0.38,-0.81,-16.73,7.49,1.79
7.42,1,-0.27,-0.37,-0.85,-15.40,9.20,7.86
7.5,1,-0.17,-0.35,-0.80,-9.03,19.34,0.48
7.57,1,0.09,-0.21,-0.70,-9.50,2.88,6.06
7.65,1,-0.26,-0.34,-0.82,-17.95,-17.99,11.13
7.72,1,-0.24,-0.41,-0.76,-17.03,-26.05,10.35
7.79,1,-0.24,-0.39,-0.77,-12.57,-25.05,6.21
7.87,1,-0.25,-0.34,-0.80,-13.82,-7.47,-5.87
7.94,1,-0.31,-0.39,-0.78,-4.71,6.39,-3.90
8.01,1,-0.45,-0.35,-0.70,-7.96,-9.12,0.36
8.09,1,-0.60,-0.28,-0.62,-12.91,-38.07,7.27
8.16,1,-0.47,-0.24,-0.66,-7.70,-150.13,51.16
8.24,1,-0.51,-0.39,-0.73,-13.24,-188.70,70.40
8.31,1,-0.53,-0.36,-0.57,-26.06,-138.34,51.60
8.39,1,-0.47,-0.44,-0.42,-26.71,-82.80,29.33
8.46,1,-0.56,-0.26,-0.40,-11.58,-55.40,8.54
8.54,1,-0.58,-0.27,-0.34,-16.63,11.79,-4.13
8.61,1,-0.55,-0.02,-0.27,-15.38,134.32,-46.66
8.69,1,-0.63,-0.19,-0.70,-10.85,183.47,-69.09
8.76,1,-0.70,-0.34,-0.83,-5.82,147.07,-57.07
8.83,1,-0.48,-0.36,-0.68,-27.18,100.58,-43.17
8.91,1,-0.39,-0.36,-0.66,-31.98,41.37,-17.36
8.98,1,-0.33,-0.34,-0.72,-19.98,7.40,-8.95
9.06,1,-0.31,-0.35,-0.79,-10.81,-9.04,-7.52
9.13,1,-0.30,-0.37,-0.82,-7.22,-14.44,-2.22
9.2,1,-0.25,-0.36,-0.90,-14.14,-8.27,-5.32
9.28,1,-0.21,-0.39,-0.82,-13.96,-19.73,5.83
9.36,1,-0.19,-0.37,-0.83,-15.44,17.18,-5.56
9.42,1,-0.22,-0.36,-0.80,-12.90,8.65,-2.89
9.5,1,-0.24,-0.35,-0.74,-9.64,6.38,0.94
9.58,1,-0.28,-0.36,-0.74,-5.08,-8.69,10.56
9.65,1,-0.35,-0.38,-0.77,-2.24,-33.44,20.08
9.72,1,-0.34,-0.37,-0.78,-7.30,-8.30,8.32
9.8,1,-0.46,-0.36,-0.70,-16.47,-11.46,6.14
9.88,1,-0.53,-0.39,-0.71,-18.50,-50.43,20.00
9.95,1,-0.66,-0.27,-0.81,-19.73,-43.41,21.16
10.02,1,-0.52,-0.35,-0.67,-9.44,-75.23,28.19
10.1,1,-0.54,-0.38,-0.73,-17.25,-132.02,46.48
10.17,1,-0.52,-0.34,-0.66,-30.21,-159.11,53.65
10.24,1,-0.52,-0.35,-0.46,-8.05,-96.70,22.38
10.32,1,-0.67,-0.20,-0.40,-20.76,4.01,-7.46
10.4,1,-0.95,-0.38,-0.61,-25.07,94.07,-26.54
10.47,1,-0.60,-0.35,-0.55,-22.91,153.02,-58.15
10.54,1,-0.64,-0.31,-0.62,-19.47,132.27,-51.60
10.62,1,-0.44,-0.36,-0.69,-23.43,90.27,-38.34
10.69,1,-0.45,-0.36,-0.70,-19.28,43.02,-19.48
10.76,1,-0.38,-0.37,-0.73,-13.60,5.24,-3.67
10.84,1,-0.37,-0.38,-0.76,-12.43,2.56,-5.08
10.91,1,-0.35,-0.38,-0.74,-15.05,-9.83,1.66
10.99,1,-0.32,-0.38,-0.75,-13.95,-10.20,3.85
11.06,1,-0.34,-0.41,-0.77,-15.37,1.34,9.95
11.14,1,-0.26,-0.40,-0.77,-8.18,12.37,-2.17
11.21,1,-0.25,-0.38,-0.76,-10.50,-1.97,5.95
11.28,1,-0.29,-0.37,-0.74,-8.99,-0.89,8.89
11.36,1,-0.30,-0.34,-0.73,-4.40,7.68,1.35
11.43,1,-0.30,-0.40,-0.74,-4.47,18.26,2.22
11.51,1,-0.34,-0.36,-0.73,-11.73,20.69,-4.92
11.58,1,-0.34,-0.37,-0.78,-15.83,1.80,-1.92
11.66,1,-0.38,-0.40,-0.77,-14.65,-23.76,2.66
11.73,1,-0.37,-0.37,-0.80,-19.72,-32.28,4.56
11.8,1,-0.46,-0.39,-0.66,-15.20,-41.77,10.69
11.88,1,-0.50,-0.35,-0.64,-15.74,-54.56,13.17
11.96,1,-0.52,-0.36,-0.69,-25.80,-107.95,29.08
12.03,1,-0.56,-0.35,-0.85,-12.37,-152.18,50.95
12.1,1,-0.44,-0.37,-0.60,-10.83,-115.80,28.23
12.18,1,-0.41,-0.32,-0.38,-14.73,-9.27,-5.95
12.25,1,-0.54,-0.29,-0.44,-21.06,62.13,-26.23
12.33,1,-0.72,-0.31,-0.75,-20.36,115.97,-77.80
12.4,1,-0.41,-0.24,-0.59,-2.88,110.85,-41.29
12.47,1,-0.48,-0.37,-0.74,-9.93,94.32,-45.64
12.55,1,-0.42,-0.36,-0.73,-20.82,67.95,-29.02
12.62,1,-0.39,-0.37,-0.78,-25.65,45.92,-18.65
12.7,1,-0.36,-0.37,-0.75,-16.77,3.81,-3.89
12.77,1,-0.31,-0.39,-0.77,-11.72,-19.84,8.47
12.84,1,-0.31,-0.39,-0.79,-10.24,-28.06,13.52
12.92,1,-0.40,-0.45,-0.90,-6.79,-28.95,15.19
12.99,1,-0.16,-0.39,-0.74,-6.56,-13.02,3.39
13.07,1,-0.21,-0.39,-0.77,-9.34,-3.47,1.50
13.14,1,-0.28,-0.36,-0.78,-11.43,3.18,2.32
13.21,1,-0.32,-0.34,-0.73,-9.38,13.95,1.06
13.29,1,-0.38,-0.35,-0.72,-5.79,12.37,1.48
13.37,1,-0.35,-0.36,-0.75,-10.99,5.44,1.71
13.44,1,-0.37,-0.39,-0.77,-13.43,-6.02,0.96
13.52,1,-0.40,-0.36,-0.75,-16.39,-19.05,-2.00
13.59,1,-0.46,-0.37,-0.73,-16.83,-20.37,0.00
13.66,1,-0.47,-0.36,-0.66,-17.30,-22.47,-1.10
13.74,1,-0.53,-0.34,-0.64,-24.95,-26.92,2.60
13.81,1,-0.60,-0.26,-0.62,-20.95,-73.45,22.04
13.89,1,-0.58,-0.34,-0.68,-2.37,-152.76,49.61
13.96,1,-0.72,-0.58,-0.60,-20.68,-142.07,71.48
14.03,1,-0.53,-0.29,-0.38,-6.95,-57.97,2.62
14.11,1,-0.74,-0.27,-0.42,-17.31,43.19,-4.28
14.18,1,-0.70,-0.22,-0.64,-14.77,101.79,-47.14
14.26,1,-0.44,-0.19,-0.54,-7.71,132.76,-50.04
14.33,1,-0.47,-0.33,-0.73,-8.09,78.72,-38.98
14.41,1,-0.50,-0.34,-0.67,-17.38,59.26,-34.63
14.48,1,-0.49,-0.36,-0.68,-22.09,36.77,-18.74
14.55,1,-0.45,-0.36,-0.72,-20.85,6.60,-4.53
14.63,1,-0.42,-0.36,-0.74,-13.60,-6.11,1.43
14.7,1,-0.39,-0.38,-0.74,-11.66,-13.43,3.58
14.78,1,-0.37,-0.37,-0.74,-11.15,-26.15,8.90
14.85,1,-0.30,-0.35,-0.76,-12.03,-0.70,-5.92
14.92,1,-0.42,-0.35,-0.72,-6.00,4.75,4.72
15.0,1,-0.37,-0.37,-0.71,-8.63,1.81,3.82
15.07,1,-0.36,-0.34,-0.74,-4.86,7.02,5.90
15.15,1,-0.33,-0.34,-0.72,-7.72,7.21,0.69
15.22,1,-0.37,-0.33,-0.73,-11.92,3.72,-0.24
15.29,1,-0.40,-0.34,-0.72,-16.93,-8.62,1.41
15.37,1,-0.43,-0.38,-0.73,-13.44,-27.89,3.98
15.45,1,-0.43,-0.39,-0.72,-14.08,-14.44,-2.99
15.52,1,-0.44,-0.36,-0.66,-22.33,1.15,-8.55
15.59,1,-0.45,-0.36,-0.67,-23.92,26.11,-16.89
15.67,1,-0.52,-0.28,-0.67,-24.86,-8.99,-0.47
