time(s),boardID,aX,aY,aZ,gX,gY,gZ
0.51,1,-0.42,-0.34,-0.70,-13.80,12.21,-5.21
0.52,1,-0.39,-0.38,-0.72,-10.08,-10.52,2.86
0.52,1,-0.35,-0.36,-0.74,-12.84,-5.75,3.21
0.53,1,-0.35,-0.36,-0.73,-11.44,-7.63,4.89
0.53,1,-0.36,-0.34,-0.73,-13.05,-4.47,0.90
0.54,1,-0.37,-0.35,-0.71,-11.79,2.15,-1.94
0.54,1,-0.39,-0.36,-0.72,-13.37,-0.09,-2.05
0.55,1,-0.40,-0.35,-0.72,-14.11,-2.79,-1.21
0.56,1,-0.41,-0.36,-0.72,-15.37,-5.67,-0.87
0.56,1,-0.42,-0.35,-0.69,-14.73,-7.82,0.18
0.57,1,-0.44,-0.35,-0.70,-14.05,-11.04,1.06
0.57,1,-0.46,-0.35,-0.69,-15.02,-14.81,1.34
0.57,1,-0.49,-0.35,-0.69,-17.17,-14.84,4.58
0.57,1,-0.47,-0.36,-0.59,-10.28,-19.40,1.11
0.58,1,-0.45,-0.34,-0.68,-11.89,-23.53,3.53
0.58,1,-0.44,-0.34,-0.66,-14.68,-22.07,5.31
0.59,1,-0.50,-0.35,-0.70,-19.67,-12.79,4.29
0.59,1,-0.46,-0.34,-0.62,-11.89,6.10,-7.18
0.59,1,-0.43,-0.34,-0.65,-11.86,5.81,-6.63
0.59,1,-0.47,-0.35,-0.66,-17.31,14.56,-5.53
0.6,1,-0.48,-0.35,-0.65,-16.05,18.24,-8.11
0.6,1,-0.56,-0.41,-0.71,-17.18,37.04,-19.94
0.6,1,-0.43,-0.30,-0.60,-12.31,26.93,-11.88
0.6,1,-0.50,-0.37,-0.71,-13.78,9.95,-5.08
0.6,1,-0.42,-0.35,-0.67,-15.35,5.24,-2.44
0.61,1,-0.43,-0.36,-0.69,-12.80,1.32,-0.39
0.61,1,-0.48,-0.37,-0.76,-16.53,0.70,8.15
0.61,1,-0.44,-0.35,-0.66,-12.64,2.50,-2.34
0.61,1,-0.41,-0.38,-0.72,-10.91,-7.44,6.24
0.61,1,-0.36,-0.35,-0.72,-11.15,-0.73,2.69
0.62,1,-0.35,-0.35,-0.73,-10.76,0.24,0.78
0.62,1,-0.37,-0.34,-0.73,-12.75,-1.40,0.62
0.62,1,-0.39,-0.35,-0.73,-14.56,-0.32,-2.44
0.62,1,-0.40,-0.35,-0.72,-14.09,-3.55,-2.54
0.62,1,-0.40,-0.36,-0.71,-14.15,-5.62,-2.73
0.62,1,-0.41,-0.35,-0.70,-15.54,-9.24,-0.94
0.63,1,-0.44,-0.35,-0.70,-16.86,-11.27,1.45
0.63,1,-0.45,-0.35,-0.69,-14.61,-8.90,0.17
0.63,1,-0.46,-0.35,-0.68,-13.08,-12.36,1.23
0.63,1,-0.50,-0.35,-0.69,-16.42,-14.26,2.73
0.64,1,-0.46,-0.34,-0.66,-10.61,-11.57,1.66
0.64,1,-0.44,-0.33,-0.67,-11.58,-17.18,1.26
0.64,1,-0.44,-0.34,-0.68,-15.34,-18.83,4.83
0.64,1,-0.43,-0.34,-0.66,-15.73,-15.02,4.11
0.65,1,-0.44,-0.33,-0.65,-13.08,-6.21,-0.34
0.65,1,-0.43,-0.30,-0.64,-13.62,5.61,-4.16
0.65,1,-0.47,-0.33,-0.67,-13.98,11.88,-3.63
0.65,1,-0.47,-0.34,-0.67,-14.02,19.54,-5.56
0.65,1,-0.58,-0.42,-0.72,-12.94,49.10,-18.40
0.65,1,-0.45,-0.37,-0.63,-15.42,26.48,-14.26
0.66,1,-0.46,-0.37,-0.72,-13.56,3.98,-1.08
0.66,1,-0.43,-0.36,-0.68,-15.31,8.66,-3.92
0.66,1,-0.42,-0.36,-0.71,-13.37,1.24,-0.39
0.66,1,-0.40,-0.35,-0.71,-11.86,-10.34,4.58
0.66,1,-0.31,-0.34,-0.70,-14.99,7.88,-2.35
0.67,1,-0.39,-0.32,-0.69,-11.89,13.92,-4.33
0.67,1,-0.46,-0.37,-0.72,-14.02,-5.90,5.64
0.67,1,-0.42,-0.32,-0.69,-12.53,-2.98,1.89
0.67,1,-0.41,-0.36,-0.73,-13.47,-3.22,0.02
0.67,1,-0.38,-0.35,-0.71,-13.73,-6.30,-0.31
0.68,1,-0.38,-0.35,-0.73,-12.94,-1.66,-3.08
0.68,1,-0.38,-0.36,-0.72,-14.34,-6.66,-1.78
0.68,1,-0.40,-0.35,-0.72,-14.82,-9.35,-0.49
0.68,1,-0.42,-0.35,-0.71,-15.63,-10.60,0.63
0.68,1,-0.44,-0.34,-0.70,-16.08,-12.36,0.45
0.69,1,-0.48,-0.35,-0.72,-16.19,-11.70,2.31
0.69,1,-0.47,-0.32,-0.68,-10.24,-11.31,0.69
0.69,1,-0.44,-0.35,-0.68,-11.73,-18.54,1.43
0.69,1,-0.44,-0.34,-0.66,-14.89,-21.14,4.08
0.69,1,-0.45,-0.34,-0.66,-14.75,-19.92,4.73
0.7,1,-0.43,-0.33,-0.60,-15.64,-5.40,-0.56
0.7,1,-0.49,-0.31,-0.66,-9.00,-0.12,-0.08
0.7,1,-0.45,-0.32,-0.67,-12.69,7.82,-4.76
0.7,1,-0.46,-0.34,-0.66,-17.43,12.70,-4.61
0.7,1,-0.47,-0.33,-0.66,-15.39,11.32,-3.50
0.7,1,-0.55,-0.37,-0.88,-11.69,29.22,-18.95
0.71,1,-0.43,-0.29,-0.62,-11.57,25.57,-11.36
0.71,1,-0.51,-0.36,-0.72,-15.26,8.71,-4.06
0.71,1,-0.42,-0.36,-0.70,-15.92,4.03,-2.35
0.71,1,-0.41,-0.35,-0.69,-13.44,-0.14,0.11
0.72,1,-0.42,-0.36,-0.71,-11.63,-12.85,6.10
0.72,1,-0.34,-0.35,-0.68,-11.63,6.51,0.71
0.72,1,-0.42,-0.35,-0.66,-10.94,11.27,-1.80
0.72,1,-0.49,-0.37,-0.75,-13.67,-10.85,8.89
0.72,1,-0.41,-0.33,-0.70,-13.11,-7.63,3.31
0.72,1,-0.39,-0.37,-0.72,-12.00,-4.95,1.46
0.73,1,-0.36,-0.36,-0.72,-12.40,-5.17,0.24
0.73,1,-0.37,-0.36,-0.72,-13.20,-4.50,-1.68
0.73,1,-0.37,-0.35,-0.73,-15.05,-4.77,-2.87
0.73,1,-0.40,-0.35,-0.71,-15.27,-8.53,-0.85
0.73,1,-0.42,-0.35,-0.70,-15.50,-10.19,0.44
0.74,1,-0.44,-0.35,-0.70,-15.43,-13.03,1.24
0.74,1,-0.46,-0.35,-0.71,-16.63,-10.89,1.79
0.74,1,-0.46,-0.34,-0.67,-10.81,-6.98,-1.27
0.74,1,-0.43,-0.35,-0.69,-10.81,-17.57,1.73
0.75,1,-0.43,-0.35,-0.69,-13.81,-19.34,4.01
0.75,1,-0.44,-0.35,-0.67,-15.33,-18.06,4.27
0.75,1,-0.44,-0.32,-0.65,-14.12,-13.05,1.25
0.75,1,-0.45,-0.33,-0.69,-15.56,1.60,-3.52
0.75,1,-0.47,-0.34,-0.67,-11.38,11.24,-2.45
0.75,1,-0.45,-0.35,-0.66,-14.88,21.76,-7.34
0.75,1,-0.46,-0.36,-0.71,-14.11,13.94,-5.15
0.75,1,-0.44,-0.30,-0.64,-13.28,25.32,-8.91
0.76,1,-0.45,-0.32,-0.64,-14.11,15.51,-6.92
0.76,1,-0.46,-0.35,-0.72,-9.33,2.66,-2.44
0.76,1,-0.41,-0.39,-0.71,-8.68,-1.17,-2.21
0.77,1,-0.41,-0.41,-0.72,-15.69,-22.08,12.54
0.77,1,-0.43,-0.37,-0.74,-8.37,-10.40,7.07
0.77,1,-0.39,-0.32,-0.68,-13.88,4.55,-2.96
0.77,1,-0.45,-0.34,-0.75,-16.47,17.61,-8.66
0.77,1,-0.40,-0.36,-0.76,-12.91,34.75,-20.32
0.77,1,-0.36,-0.38,-0.75,-20.03,41.40,-20.44
0.78,1,-0.31,-0.37,-0.78,-12.94,46.57,-20.63
0.78,1,-0.25,-0.36,-0.78,-8.38,41.07,-19.52
0.78,1,-0.13,-0.33,-0.82,-9.00,29.03,-15.63
0.78,1,-0.13,-0.37,-0.79,-8.28,12.19,-8.42
0.78,1,-0.11,-0.46,-0.77,-13.93,4.45,-2.95
0.79,1,-0.12,-0.36,-0.77,-10.04,5.65,-1.00
0.79,1,-0.14,-0.38,-0.84,-16.02,2.91,1.73
0.79,1,-0.12,-0.39,-0.83,-19.98,-10.37,7.34
0.79,1,-0.12,-0.39,-0.80,-19.76,-17.95,11.78
0.8,1,-0.12,-0.39,-0.77,-5.48,-13.85,7.13
0.8,1,-0.17,-0.46,-0.81,-5.77,2.11,0.10
0.8,1,-0.13,-0.42,-0.80,-8.15,18.20,-9.43
0.8,1,-0.14,-0.38,-0.80,-8.04,15.10,-14.69
0.8,1,-0.12,-0.41,-0.80,-10.13,7.11,-16.44
0.8,1,-0.13,-0.40,-0.79,-13.84,1.37,-11.47
0.81,1,-0.13,-0.43,-0.81,-14.25,0.49,-3.27
0.81,1,-0.10,-0.39,-0.78,-13.02,1.82,6.63
0.81,1,-0.10,-0.42,-0.79,-11.26,3.72,7.96
0.81,1,-0.08,-0.41,-0.78,-12.44,2.75,6.21
0.82,1,-0.07,-0.42,-0.77,-13.02,3.15,0.10
0.82,1,-0.10,-0.42,-0.77,-12.39,4.08,-6.21
0.82,1,-0.05,-0.43,-0.81,-11.71,3.87,-5.45
0.82,1,-0.09,-0.40,-0.74,-11.55,0.71,-4.89
0.82,1,-0.10,-0.43,-0.78,-11.57,1.08,-11.52
0.83,1,-0.09,-0.43,-0.82,-14.50,-4.08,-10.54
0.83,1,-0.08,-0.41,-0.79,-13.93,-7.42,-3.21
0.83,1,-0.08,-0.44,-0.80,-16.37,-1.75,-2.01
0.83,1,-0.08,-0.44,-0.80,-12.89,1.07,-2.96
0.83,1,-0.05,-0.45,-0.81,-10.77,-5.55,-1.56
0.84,1,-0.07,-0.43,-0.81,-8.90,-7.55,-0.89
0.84,1,-0.10,-0.46,-0.82,-13.14,-2.89,1.86
0.84,1,-0.09,-0.42,-0.78,-17.98,8.48,0.81
0.84,1,-0.08,-0.46,-0.81,-13.67,4.97,3.89
0.85,1,-0.08,-0.45,-0.81,-17.41,-1.14,7.07
0.85,1,-0.10,-0.44,-0.80,-13.66,-9.93,9.05
0.85,1,-0.10,-0.44,-0.79,-14.29,-13.73,7.82
0.85,1,-0.10,-0.42,-0.80,-13.01,-17.26,6.40
0.85,1,-0.12,-0.43,-0.79,-14.44,-17.22,3.60
0.85,1,-0.11,-0.42,-0.78,-13.94,-14.65,1.93
0.85,1,-0.13,-0.42,-0.79,-13.50,-5.18,-2.96
0.86,1,-0.14,-0.41,-0.80,-21.60,8.54,-7.02
0.86,1,-0.12,-0.38,-0.79,-23.89,14.20,-8.20
0.86,1,-0.12,-0.43,-0.81,-15.15,12.87,-7.89
0.86,1,-0.11,-0.41,-0.81,-15.98,11.92,-9.02
0.87,1,-0.09,-0.42,-0.82,-17.20,10.89,-10.47
0.87,1,-0.10,-0.40,-0.79,-16.13,9.07,-9.30
0.87,1,-0.10,-0.40,-0.78,-9.18,12.28,-10.98
0.87,1,-0.08,-0.43,-0.79,-11.63,8.44,-8.63
0.87,1,-0.07,-0.40,-0.80,-12.59,-1.42,-1.99
0.87,1,-0.08,-0.40,-0.81,-12.27,-6.86,2.10
0.88,1,-0.07,-0.42,-0.81,-14.28,-10.26,5.42
0.88,1,-0.08,-0.42,-0.80,-8.34,-9.44,6.76
0.88,1,-0.09,-0.43,-0.81,-11.31,-6.55,6.12
0.88,1,-0.09,-0.42,-0.80,-14.28,-1.11,1.78
0.88,1,-0.09,-0.42,-0.79,-15.08,4.23,-3.92
0.89,1,-0.09,-0.42,-0.81,-15.10,5.79,-8.03
0.89,1,-0.08,-0.42,-0.81,-16.31,0.73,-4.92
0.89,1,-0.09,-0.42,-0.79,-15.22,-1.59,-1.50
0.89,1,-0.10,-0.42,-0.80,-12.69,-0.39,-0.27
0.89,1,-0.10,-0.42,-0.79,-13.73,0.55,0.71
0.9,1,-0.09,-0.43,-0.80,-13.80,-2.99,2.08
0.9,1,-0.09,-0.42,-0.79,-13.11,-8.58,2.91
0.9,1,-0.09,-0.41,-0.80,-10.65,-13.11,2.55
0.9,1,-0.10,-0.41,-0.80,-11.77,-15.18,2.87
0.9,1,-0.12,-0.43,-0.79,-11.91,-12.44,0.98
0.9,1,-0.13,-0.43,-0.79,-10.85,-3.73,-3.81
0.91,1,-0.12,-0.43,-0.79,-14.70,5.58,-6.95
0.91,1,-0.12,-0.43,-0.80,-15.65,10.37,-9.38
0.91,1,-0.09,-0.42,-0.81,-17.24,9.79,-7.76
0.91,1,-0.10,-0.42,-0.79,-13.72,6.33,-4.98
0.92,1,-0.11,-0.42,-0.80,-14.60,4.78,-3.28
0.92,1,-0.08,-0.43,-0.80,-14.88,8.08,-4.86
0.92,1,-0.09,-0.43,-0.80,-15.51,11.37,-4.11
0.92,1,-0.08,-0.41,-0.80,-14.76,13.13,-4.89
0.92,1,-0.08,-0.42,-0.80,-16.00,10.93,-4.72
0.92,1,-0.09,-0.41,-0.79,-14.02,6.18,-3.50
0.93,1,-0.06,-0.43,-0.78,-14.21,-1.58,-0.96
0.93,1,-0.08,-0.42,-0.79,-13.76,-7.31,0.69
0.93,1,-0.07,-0.41,-0.81,-11.53,-9.96,0.48
0.93,1,-0.08,-0.43,-0.81,-14.32,-9.13,1.29
0.93,1,-0.07,-0.42,-0.80,-14.01,-8.33,2.21
0.94,1,-0.09,-0.43,-0.83,-12.55,-5.45,2.00
0.94,1,-0.10,-0.42,-0.81,-11.63,-0.92,-0.56
0.94,1,-0.08,-0.42,-0.80,-17.84,3.65,-1.92
0.94,1,-0.09,-0.40,-0.79,-15.50,5.33,-2.60
0.94,1,-0.09,-0.41,-0.81,-12.98,5.90,-3.76
0.95,1,-0.08,-0.42,-0.80,-13.87,-0.19,-3.02
0.95,1,-0.07,-0.42,-0.80,-16.56,-11.51,1.91
0.95,1,-0.09,-0.40,-0.80,-10.08,-15.42,2.58
0.95,1,-0.10,-0.40,-0.79,-9.69,-11.99,0.50
0.95,1,-0.11,-0.40,-0.79,-11.94,-6.40,-1.50
0.95,1,-0.09,-0.41,-0.80,-13.61,-3.85,-0.47
0.96,1,-0.11,-0.42,-0.80,-15.40,-1.63,0.09
0.96,1,-0.09,-0.41,-0.79,-17.62,0.38,-1.10
0.96,1,-0.11,-0.40,-0.80,-18.09,2.63,-1.52
0.96,1,-0.11,-0.38,-0.79,-21.95,4.36,0.38
0.97,1,-0.10,-0.40,-0.81,-14.82,5.39,0.11
0.97,1,-0.09,-0.40,-0.79,-14.98,4.27,1.01
0.97,1,-0.10,-0.40,-0.83,-14.53,5.91,-1.20
0.97,1,-0.11,-0.39,-0.81,-8.40,8.24,-5.45
0.97,1,-0.10,-0.40,-0.81,-6.45,10.98,-10.21
0.97,1,-0.10,-0.42,-0.81,-9.20,14.26,-10.77
0.98,1,-0.08,-0.42,-0.79,-16.92,10.96,-9.85
0.98,1,-0.06,-0.40,-0.78,-14.09,1.56,-8.82
0.98,1,-0.04,-0.40,-0.78,-11.56,-9.28,-4.07
0.98,1,-0.08,-0.42,-0.79,-14.25,-9.64,2.47
0.98,1,-0.08,-0.42,-0.79,-16.36,-7.75,3.61
0.99,1,-0.09,-0.41,-0.81,-12.95,-5.29,3.88
0.99,1,-0.09,-0.43,-0.81,-10.06,-2.27,4.00
0.99,1,-0.10,-0.44,-0.80,-8.92,-3.24,3.79
0.99,1,-0.09,-0.46,-0.79,-14.60,-2.43,3.47
1.0,1,-0.11,-0.44,-0.79,-11.98,-8.84,3.72
1.0,1,-0.13,-0.44,-0.79,-11.27,-9.54,3.80
1.0,1,-0.14,-0.43,-0.80,-12.34,-10.84,5.18
1.0,1,-0.17,-0.41,-0.79,-10.14,-11.17,6.33
1.0,1,-0.17,-0.42,-0.79,-13.05,-10.75,7.92
1.0,1,-0.18,-0.41,-0.79,-16.08,-8.25,6.53
1.0,1,-0.19,-0.40,-0.77,-16.89,-7.82,3.44
1.01,1,-0.19,-0.40,-0.77,-17.76,-7.31,-0.13
1.01,1,-0.18,-0.41,-0.76,-17.83,-4.50,-3.56
1.01,1,-0.18,-0.41,-0.77,-15.59,-1.44,-5.06
1.02,1,-0.18,-0.41,-0.79,-14.03,1.05,-4.42
1.02,1,-0.17,-0.41,-0.79,-15.47,2.89,-2.69
1.02,1,-0.16,-0.41,-0.79,-14.74,5.23,-1.91
1.02,1,-0.16,-0.41,-0.78,-12.99,8.38,-1.92
1.02,1,-0.16,-0.41,-0.79,-12.47,12.15,-3.17
1.03,1,-0.15,-0.41,-0.79,-14.56,14.40,-4.37
1.03,1,-0.14,-0.40,-0.78,-15.37,15.41,-5.64
1.03,1,-0.12,-0.40,-0.79,-14.30,14.14,-6.41
1.03,1,-0.11,-0.40,-0.79,-12.93,11.38,-6.72
1.03,1,-0.10,-0.40,-0.80,-15.56,7.22,-5.91
1.04,1,-0.09,-0.41,-0.81,-16.79,2.70,-5.02
1.04,1,-0.09,-0.41,-0.81,-15.06,-0.92,-4.05
1.04,1,-0.09,-0.41,-0.82,-13.44,-3.39,-3.02
1.05,1,-0.09,-0.41,-0.81,-13.87,-5.32,-1.74
1.08,1,-0.09,-0.41,-0.81,-15.06,-6.57,-0.35
1.1,1,-0.10,-0.40,-0.82,-13.41,-6.34,0.25
1.13,1,-0.11,-0.41,-0.80,-12.47,-4.67,-0.34
1.17,1,-0.11,-0.40,-0.81,-13.95,-2.25,-1.06
1.17,1,-0.12,-0.39,-0.80,-15.73,-0.62,-1.39
1.17,1,-0.12,-0.40,-0.80,-15.02,0.13,-1.20
1.17,1,-0.11,-0.40,-0.79,-12.86,0.27,-1.24
1.19,1,-0.11,-0.39,-0.81,-12.88,-0.96,-1.18
1.2,1,-0.10,-0.40,-0.80,-14.21,-3.50,-1.02
1.2,1,-0.11,-0.40,-0.81,-14.26,-6.11,-1.00
1.2,1,-0.11,-0.40,-0.80,-12.57,-8.33,-0.30
1.2,1,-0.12,-0.40,-0.78,-14.39,-8.28,-0.27
1.2,1,-0.12,-0.39,-0.78,-14.92,-8.45,0.99
1.21,1,-0.11,-0.40,-0.77,-16.59,-2.82,-1.45
1.21,1,-0.13,-0.35,-0.82,-20.37,-2.42,-0.26
1.21,1,-0.13,-0.36,-0.81,-17.88,0.92,-7.40
1.21,1,-0.08,-0.38,-0.82,-12.60,-3.78,-5.10
1.22,1,-0.12,-0.39,-0.81,-14.47,-0.31,-6.53
1.22,1,-0.13,-0.38,-0.80,-15.86,4.05,-9.56
1.22,1,-0.13,-0.38,-0.80,-15.48,6.49,-9.97
1.22,1,-0.13,-0.40,-0.81,-13.82,7.61,-8.95
1.22,1,-0.12,-0.39,-0.81,-14.54,6.74,-6.80
1.22,1,-0.12,-0.40,-0.79,-15.51,4.16,-3.91
1.23,1,-0.11,-0.39,-0.80,-14.91,1.83,-0.64
1.23,1,-0.12,-0.39,-0.80,-14.18,-0.11,1.79
1.23,1,-0.12,-0.39,-0.82,-14.00,-1.73,3.02
1.23,1,-0.12,-0.38,-0.80,-12.47,-3.60,3.54
1.23,1,-0.12,-0.39,-0.82,-12.51,-4.79,3.29
1.24,1,-0.13,-0.38,-0.80,-13.18,-4.37,2.38
1.24,1,-0.13,-0.39,-0.81,-13.15,-2.10,0.75
1.24,1,-0.13,-0.38,-0.81,-14.10,-0.04,-0.44
1.25,1,-0.13,-0.38,-0.81,-14.42,0.90,-2.11
1.25,1,-0.13,-0.38,-0.81,-13.35,0.86,-2.95
1.25,1,-0.14,-0.39,-0.81,-12.14,1.24,-3.38
1.25,1,-0.13,-0.39,-0.81,-12.96,0.78,-3.55
1.25,1,-0.12,-0.38,-0.80,-15.02,-1.08,-3.13
1.25,1,-0.12,-0.38,-0.81,-14.98,-3.50,-2.73
1.26,1,-0.12,-0.38,-0.80,-13.35,-5.84,-1.82
1.26,1,-0.12,-0.39,-0.80,-12.67,-7.95,-0.94
1.27,1,-0.12,-0.38,-0.80,-13.40,-8.06,-0.31
1.27,1,-0.13,-0.39,-0.80,-14.15,-5.98,-0.69
1.27,1,-0.12,-0.39,-0.79,-14.02,-2.13,-1.28
1.27,1,-0.13,-0.38,-0.80,-13.24,1.73,-2.05
1.27,1,-0.13,-0.39,-0.80,-13.69,3.85,-2.10
1.28,1,-0.13,-0.39,-0.80,-14.67,4.65,-2.46
1.28,1,-0.12,-0.38,-0.80,-14.02,5.32,-2.74
1.28,1,-0.13,-0.38,-0.81,-13.44,6.35,-3.07
1.28,1,-0.12,-0.39,-0.80,-14.67,6.71,-3.41
1.29,1,-0.12,-0.38,-0.81,-15.56,6.21,-3.00
1.29,1,-0.11,-0.38,-0.80,-15.12,4.40,-2.06
1.29,1,-0.12,-0.39,-0.81,-12.93,2.11,-0.75
1.29,1,-0.12,-0.38,-0.81,-12.42,0.21,0.26
1.3,1,-0.12,-0.39,-0.81,-13.33,-0.74,1.16
1.3,1,-0.12,-0.39,-0.81,-13.89,-0.67,1.25
1.3,1,-0.12,-0.39,-0.81,-12.87,-0.15,0.86
1.3,1,-0.12,-0.39,-0.80,-12.37,0.32,-0.20
1.3,1,-0.11,-0.38,-0.80,-13.20,-0.35,-0.88
1.3,1,-0.12,-0.38,-0.81,-14.17,-1.23,-1.05
1.31,1,-0.12,-0.39,-0.81,-13.92,-2.16,-1.16
1.31,1,-0.12,-0.39,-0.81,-13.43,-2.76,-1.13
1.31,1,-0.13,-0.38,-0.81,-13.82,-3.07,-1.47
1.32,1,-0.12,-0.39,-0.81,-13.41,-2.86,-1.45
1.32,1,-0.13,-0.39,-0.81,-13.82,-2.72,-1.48
1.32,1,-0.12,-0.38,-0.80,-13.51,-1.96,-1.36
1.32,1,-0.12,-0.39,-0.80,-13.21,1.45,-3.58
1.33,1,-0.12,-0.39,-0.81,-14.57,1.40,-3.11
1.33,1,-0.12,-0.39,-0.80,-14.74,1.50,-3.07
1.33,1,-0.13,-0.40,-0.81,-13.39,2.96,-3.27
1.33,1,-0.14,-0.40,-0.83,-14.15,7.00,-5.08
1.34,1,-0.18,-0.41,-0.83,-14.76,13.01,-7.58
1.34,1,-0.37,-0.38,-0.73,-9.63,-16.68,-1.78
1.34,1,-0.27,-0.43,-0.66,-9.42,-95.08,31.64
1.35,1,-0.33,-0.41,-0.82,-6.72,-201.21,77.51
1.35,1,-0.31,-0.37,-0.76,-6.06,-164.98,61.37
1.37,1,-0.38,-0.28,-0.61,-16.92,-38.04,12.67
1.45,1,-0.42,-0.29,-0.57,-15.31,-0.87,-2.30
1.52,1,-0.50,-0.34,-0.63,-15.25,49.05,-22.82
1.6,1,-0.56,-0.39,-0.72,-17.92,69.56,-27.50
1.67,1,-0.57,-0.37,-0.69,-15.59,60.26,-23.66
1.75,1,-0.53,-0.35,-0.63,-14.31,42.02,-16.53
1.82,1,-0.54,-0.34,-0.61,-12.65,21.53,-3.67
1.89,1,-0.55,-0.29,-0.57,-13.01,0.79,7.50
1.97,1,-0.49,-0.31,-0.62,-12.79,-9.02,10.44
2.04,1,-0.51,-0.32,-0.63,-12.36,-18.01,9.07
2.12,1,-0.52,-0.33,-0.66,-13.69,-12.52,1.99
2.19,1,-0.54,-0.36,-0.69,-15.37,-0.11,-1.53
2.26,1,-0.51,-0.36,-0.68,-13.00,8.01,-5.31
2.34,1,-0.47,-0.37,-0.68,-12.45,2.99,-5.82
2.41,1,-0.45,-0.36,-0.72,-10.26,-5.54,-4.09
2.48,1,-0.45,-0.35,-0.74,-0.33,0.79,-9.05
2.56,1,-0.51,-0.38,-0.71,-4.55,23.24,-17.34
2.64,1,-0.34,-0.36,-0.72,-19.52,85.94,-37.92
2.71,1,-0.46,-0.39,-0.46,-21.15,-97.27,37.37
2.79,1,-0.67,-0.47,-0.63,-24.05,-190.09,69.93
2.86,1,-0.51,-0.33,-0.59,-8.73,-244.08,82.24
2.93,1,-0.35,-0.39,-0.30,-14.79,-85.56,24.49
3.01,1,-0.62,-0.24,-0.21,-16.39,-15.65,-1.89
3.08,1,-0.80,-0.26,-0.27,-18.93,50.70,-33.37
3.16,1,-1.04,-0.28,-0.38,-16.95,37.28,-22.79
3.23,1,-0.91,-0.23,-0.25,-0.18,-1.50,2.82
3.3,1,-0.85,-0.16,-0.16,2.50,-25.17,15.14
3.38,1,-0.71,-0.17,-0.21,-6.50,24.51,11.18
3.45,1,-0.82,-0.18,-0.29,-16.57,54.90,-3.21
3.53,1,-0.86,-0.25,-0.43,-13.87,62.68,-21.66
3.6,1,-0.80,-0.29,-0.49,-21.01,14.53,-11.81
3.68,1,-0.70,-0.31,-0.49,-16.69,-10.05,-4.36
3.75,1,-0.72,-0.32,-0.45,-11.57,-5.24,-5.36
3.82,1,-0.73,-0.29,-0.47,-12.69,-5.14,-1.40
3.9,1,-0.68,-0.24,-0.47,-14.58,28.21,-17.14
3.98,1,-0.67,-0.28,-0.47,-6.13,53.65,-28.50
4.05,1,-0.70,-0.29,-0.47,-4.49,56.68,-21.08
4.12,1,-0.70,-0.30,-0.50,-11.10,51.45,-11.89
4.2,1,-0.69,-0.32,-0.54,-13.78,51.49,-19.92
4.27,1,-0.75,-0.32,-0.51,-12.98,23.27,-14.01
4.35,1,-0.81,-0.20,-0.27,-6.15,-108.40,54.92
4.42,1,-0.82,-0.29,-0.53,-3.70,-204.96,75.44
4.5,1,-0.73,-0.27,-0.22,-1.11,-115.90,56.45
4.57,1,-0.77,-0.23,-0.37,-31.11,17.82,11.26
4.64,1,-0.83,-0.22,-0.50,-49.11,33.95,-3.36
4.72,1,-0.69,-0.08,-0.42,-6.58,-12.02,-13.70
4.79,1,-0.58,-0.19,-0.29,-20.37,-29.34,-6.08
4.86,1,-0.71,-0.24,-0.36,-24.74,-6.51,-7.04
4.94,1,-0.78,-0.37,-0.39,-25.52,58.82,-33.92
5.02,1,-0.87,-0.13,-0.32,-9.63,86.92,-40.83
5.09,1,-0.72,-0.22,-0.38,-19.55,89.37,-45.77
5.16,1,-0.74,-0.26,-0.43,-23.92,81.50,-31.40
5.24,1,-0.65,-0.29,-0.48,-25.12,63.09,-16.73
5.31,1,-0.67,-0.30,-0.54,-19.40,28.46,-4.28
5.39,1,-0.62,-0.35,-0.57,-11.11,-10.77,12.69
5.46,1,-0.66,-0.35,-0.61,-14.27,-24.73,12.15
5.53,1,-0.56,-0.35,-0.55,2.58,-5.88,13.43
5.61,1,-0.42,-0.33,-0.64,-3.92,2.87,-0.25
5.68,1,-0.58,-0.28,-0.55,-3.92,9.66,6.35
5.76,1,-0.54,-0.27,-0.57,7.66,-10.18,16.55
5.83,1,-0.57,-0.29,-0.55,-4.66,-2.38,1.27
5.9,1,-0.61,-0.27,-0.57,-16.11,1.01,-0.69
5.98,1,-0.62,-0.30,-0.57,-21.10,8.82,-8.92
6.06,1,-0.57,-0.35,-0.61,-20.44,25.92,-20.26
6.13,1,-0.51,-0.36,-0.63,-19.28,49.06,-28.85
6.2,1,-1.01,-0.41,-0.38,-10.50,-42.78,24.42
6.28,1,-0.89,-0.32,-0.57,0.00,-101.75,37.15
6.35,1,-0.67,-0.21,-0.51,3.22,-155.15,56.15
6.43,1,-0.58,-0.15,-0.46,-23.40,-120.91,33.92
6.5,1,-0.65,-0.20,-0.39,-23.11,-3.40,8.53
6.58,1,-0.71,-0.24,-0.46,-47.78,38.60,-9.84
6.65,1,-0.64,-0.19,-0.51,-9.60,39.53,-28.29
6.72,1,-0.71,-0.30,-0.44,-16.98,23.97,-14.75
6.8,1,-0.70,-0.29,-0.47,-20.57,20.74,-11.02
6.87,1,-0.76,-0.31,-0.45,-14.21,41.53,-23.81
6.94,1,-0.67,-0.24,-0.47,-5.01,37.34,-25.88
7.02,1,-0.67,-0.25,-0.46,-14.60,66.40,-28.07
7.1,1,-0.72,-0.27,-0.51,-20.67,58.74,-11.50
7.17,1,-0.67,-0.29,-0.54,-25.16,26.52,-3.31
7.24,1,-0.64,-0.31,-0.57,-20.40,-0.49,5.68
7.32,1,-0.68,-0.31,-0.65,-15.80,1.87,-19.87
7.39,1,-0.67,-0.27,-0.56,-8.47,20.69,-6.73
7.47,1,-0.64,-0.31,-0.56,-3.69,-10.38,7.76
7.54,1,-0.59,-0.31,-0.58,-2.11,-18.28,9.26
7.61,1,-0.57,-0.28,-0.58,1.72,-13.02,4.68
7.69,1,-0.60,-0.34,-0.54,-6.40,-6.97,7.38
7.76,1,-0.61,-0.30,-0.57,-13.45,17.03,-5.50
7.84,1,-0.57,-0.30,-0.62,-15.82,33.63,-8.47
7.91,1,-0.59,-0.35,-0.62,-19.40,20.10,-11.62
7.98,1,-0.63,-0.41,-0.60,-14.82,-18.23,-1.80
8.06,1,-0.67,-0.36,-0.58,-24.12,-32.48,6.95
8.14,1,-0.65,-0.25,-0.57,-24.51,-83.91,21.82
8.21,1,-0.72,-0.32,-0.48,-10.37,-151.97,49.98
8.28,1,-0.72,-0.21,-0.40,-12.34,-111.54,35.93
8.36,1,-0.70,-0.26,-0.44,-23.05,-47.23,24.37
8.43,1,-0.66,-0.21,-0.44,-16.26,-49.89,7.64
8.51,1,-0.55,-0.19,-0.26,-14.71,-18.98,-1.32
8.58,1,-0.65,-0.26,-0.30,-19.90,54.60,-22.17
8.66,1,-0.74,-0.31,-0.45,-17.35,103.02,-36.83
8.73,1,-0.72,-0.34,-0.60,-13.15,129.10,-48.81
8.8,1,-0.72,-0.32,-0.60,-14.42,116.55,-48.62
8.88,1,-0.69,-0.25,-0.49,-14.49,65.15,-28.68
8.95,1,-0.64,-0.31,-0.53,-17.49,14.13,-1.42
9.03,1,-0.55,-0.30,-0.57,-19.70,20.31,-0.40
9.1,1,-0.58,-0.30,-0.68,-16.92,14.49,-1.21
9.17,1,-0.55,-0.33,-0.66,-9.93,-6.28,2.56
9.25,1,-0.61,-0.42,-0.62,-6.58,18.21,-4.22
9.32,1,-0.43,-0.36,-0.63,-14.73,32.13,-7.25
9.39,1,-0.41,-0.40,-0.70,-9.50,6.57,-2.57
9.47,1,-0.43,-0.38,-0.67,-8.21,3.96,0.35
9.55,1,-0.45,-0.35,-0.68,2.11,-17.79,1.66
9.62,1,-0.47,-0.34,-0.66,4.18,-18.27,-4.95
9.69,1,-0.50,-0.38,-0.68,-8.61,-20.93,0.05
9.77,1,-0.50,-0.34,-0.65,-19.36,-30.66,5.64
9.84,1,-0.71,-0.43,-0.57,-31.83,-34.74,15.26
9.92,1,-0.78,-0.32,-0.53,-19.53,-65.83,28.76
9.99,1,-0.58,-0.31,-0.50,-13.79,-91.21,43.95
10.07,1,-0.62,-0.32,-0.48,-8.35,-80.18,39.40
10.14,1,-1.06,-0.50,-0.49,-7.37,-87.85,56.22
10.22,1,-0.69,-0.26,-0.48,-10.72,-62.30,17.53
10.29,1,-0.58,-0.24,-0.38,-5.70,-30.63,1.18
10.37,1,-0.91,-0.23,-0.40,-18.31,68.71,-0.48
10.44,1,-0.80,-0.22,-0.26,-27.44,108.16,-28.03
10.52,1,-0.81,-0.23,-0.42,-21.60,115.31,-38.60
10.59,1,-0.69,-0.30,-0.57,-19.98,77.46,-38.44
10.66,1,-0.64,-0.31,-0.56,-13.23,69.39,-37.43
10.74,1,-0.58,-0.32,-0.60,-11.04,22.34,-20.61
10.81,1,-0.54,-0.32,-0.64,-14.69,10.97,-12.18
10.89,1,-0.51,-0.33,-0.64,-21.57,2.50,-3.49
10.95,1,-0.53,-0.34,-0.65,-24.87,3.98,0.68
11.03,1,-0.39,-0.19,-0.68,-19.83,12.98,-12.65
11.11,1,-0.34,-0.35,-0.69,-15.73,21.04,-6.63
11.18,1,-0.45,-0.39,-0.74,-8.16,-3.71,3.84
11.25,1,-0.44,-0.38,-0.70,-4.44,-1.19,1.09
11.33,1,-0.46,-0.37,-0.67,1.10,-5.51,6.40
11.4,1,-0.46,-0.35,-0.65,-5.97,9.92,-1.69
11.48,1,-0.50,-0.31,-0.64,-2.42,29.61,-2.44
11.55,1,-0.55,-0.32,-0.69,-11.31,13.87,-1.05
11.63,1,-0.58,-0.36,-0.67,-17.27,-8.24,7.29
11.7,1,-0.65,-0.34,-0.64,-18.26,-43.94,15.05
11.78,1,-0.70,-0.31,-0.58,-19.58,-87.15,31.18
11.85,1,-0.64,-0.29,-0.53,-20.99,-112.26,38.56
11.93,1,-0.61,-0.27,-0.53,-21.33,-82.15,23.50
12.0,1,-0.66,-0.28,-0.62,-18.19,-60.33,15.23
12.07,1,-0.59,-0.23,-0.55,-19.15,-48.31,10.82
12.15,1,-0.56,-0.20,-0.47,-11.43,-26.59,5.34
12.22,1,-0.61,-0.23,-0.41,-18.95,6.76,-9.46
12.3,1,-0.79,-0.31,-0.38,-19.35,92.21,-49.28
12.37,1,-0.73,-0.43,-0.48,-18.39,142.34,-57.92
12.45,1,-0.68,-0.31,-0.52,-25.35,116.33,-48.76
12.52,1,-0.58,-0.34,-0.57,-21.57,71.94,-26.43
12.59,1,-0.56,-0.35,-0.61,-15.11,21.18,-10.04
12.67,1,-0.48,-0.37,-0.63,-11.64,-7.23,-0.77
12.74,1,-0.47,-0.35,-0.69,-12.64,-24.96,9.04
12.82,1,-0.50,-0.34,-0.67,-12.87,-24.50,13.98
12.89,1,-0.60,-0.39,-0.69,-11.18,5.99,3.33
12.97,1,-0.41,-0.35,-0.69,-11.36,-4.94,-1.82
13.04,1,-0.40,-0.34,-0.61,-10.40,-2.35,3.33
13.11,1,-0.45,-0.35,-0.65,-8.98,-7.30,5.08
13.18,1,-0.48,-0.34,-0.60,-6.37,0.36,4.55
13.26,1,-0.52,-0.32,-0.64,-11.79,16.53,1.44
13.33,1,-0.54,-0.32,-0.68,-5.53,14.77,0.12
13.41,1,-0.55,-0.34,-0.68,-7.15,12.00,-6.25
13.49,1,-0.55,-0.35,-0.65,-14.95,-3.02,-3.26
13.56,1,-0.59,-0.34,-0.62,-18.89,-18.99,2.17
13.63,1,-0.63,-0.32,-0.56,-18.12,-29.22,4.89
13.71,1,-0.70,-0.27,-0.48,-16.37,-37.46,9.75
13.78,1,-0.72,-0.33,-0.52,-20.54,-74.18,23.02
13.86,1,-0.70,-0.26,-0.52,-14.24,-109.20,39.60
13.93,1,-0.64,-0.31,-0.55,-14.26,-110.74,35.69
14.01,1,-0.67,-0.25,-0.48,-8.30,-43.82,13.11
14.08,1,-0.64,-0.23,-0.38,-11.50,-0.86,-2.27
14.15,1,-0.60,-0.23,-0.41,-17.12,59.90,-26.34
14.23,1,-0.55,-0.20,-0.50,-21.05,117.18,-55.98
14.31,1,-0.64,-0.30,-0.52,-14.17,92.12,-42.82
14.38,1,-0.64,-0.40,-0.63,-21.14,68.05,-36.39
14.45,1,-0.58,-0.36,-0.62,-23.16,55.91,-29.82
14.53,1,-0.55,-0.36,-0.63,-17.24,25.66,-11.46
14.6,1,-0.55,-0.40,-0.69,-11.16,-5.79,4.71
14.67,1,-0.50,-0.34,-0.68,-10.40,-19.06,9.08
14.75,1,-0.50,-0.35,-0.69,-11.88,-30.70,14.89
14.82,1,-0.53,-0.29,-0.68,-10.86,-32.85,5.40
14.9,1,-0.47,-0.33,-0.75,-2.47,-26.27,19.64
14.97,1,-0.40,-0.30,-0.62,-11.27,5.53,5.70
15.04,1,-0.45,-0.34,-0.69,-6.78,11.53,2.08
15.12,1,-0.48,-0.34,-0.63,-8.22,5.85,-6.02
15.19,1,-0.48,-0.34,-0.64,-7.39,2.09,0.27
15.27,1,-0.58,-0.34,-0.70,-16.19,-2.95,10.56
15.34,1,-0.57,-0.32,-0.63,-14.34,-14.34,6.07
15.42,1,-0.58,-0.35,-0.65,-13.93,-14.66,-1.66
15.49,1,-0.56,-0.36,-0.62,-17.63,-10.77,-4.29
